"","cov_grade","cov_female","cov_age","trial_num","rt","block","time_limit","stim_side","time","stim_shape","cohort","resp"
"1","4","0",10.0424365997314,9,0.437,"hearts test","0.75","right","PLUS Fall","heart","plus","X1"
"2","4","0",10.0424365997314,19,0.529,"hearts test","0.75","left","PLUS Fall","heart","plus","X1"
"3","4","0",10.0424365997314,65,0.713,"mixed test heart","0.75","left","PLUS Fall","heart","plus","X1"
"4","4","0",10.0424365997314,68,0.67,"mixed test heart","0.75","left","PLUS Fall","heart","plus","X1"
"5","4","0",10.1273097991943,15,0.681,"hearts test","0.75","right","PLUS Fall","heart","plus","X1"
"6","4","0",10.1273097991943,16,0.549,"hearts test","0.75","right","PLUS Fall","heart","plus","X1"
"7","4","0",10.1273097991943,65,0.58,"mixed test heart","0.75","left","PLUS Fall","heart","plus","X1"
"8","4","0",10.2067079544067,13,0.473,"hearts test","0.75","right","PLUS Fall","heart","plus","X1"
"9","4","0",10.2067079544067,18,0.432,"hearts test","0.75","left","PLUS Fall","heart","plus","X1"
"10","4","0",10.2067079544067,44,0.514,"mixed test heart","0.75","left","PLUS Fall","heart","plus","X1"
"11","4","0",10.2067079544067,51,0.53,"mixed test heart","0.75","right","PLUS Fall","heart","plus","X1"
"12","4","0",10.2067079544067,62,0.611,"mixed test heart","0.75","right","PLUS Fall","heart","plus","X0"
"13","4","0",10.2067079544067,65,0.716,"mixed test heart","0.75","left","PLUS Fall","heart","plus","X1"
"14","4","1",10.2067079544067,18,0.514,"hearts test","0.75","left","PLUS Fall","heart","plus","X1"
"15","4","1",10.2067079544067,42,0.566,"mixed test heart","0.75","right","PLUS Fall","heart","plus","X1"
"16","4","1",10.2067079544067,69,0.659,"mixed test heart","0.75","right","PLUS Fall","heart","plus","X1"
"17","4","0",10.1273097991943,11,0.725,"hearts test","0.75","left","PLUS Fall","heart","plus","X1"
"18","4","0",10.1273097991943,14,0.496,"hearts test","0.75","left","PLUS Fall","heart","plus","X1"
"19","4","0",10.1273097991943,53,0.685,"mixed test heart","0.75","left","PLUS Fall","heart","plus","X1"
"20","4","0",10.1273097991943,68,0.677,"mixed test heart","0.75","left","PLUS Fall","heart","plus","X0"
"21","4","1",9,9,0.597,"hearts test","0.75","right","PLUS Fall","heart","plus","X1"
"22","4","1",9,10,0.503,"hearts test","0.75","left","PLUS Fall","heart","plus","X1"
"23","4","1",9,70,0.628,"mixed test heart","0.75","right","PLUS Fall","heart","plus","X1"
"24","4","0",10.0424365997314,42,0.667,"mixed test heart","0.75","right","PLUS Fall","heart","plus","X1"
"25","4","0",10.0424365997314,43,0.492,"mixed test heart","0.75","right","PLUS Fall","heart","plus","X1"
"26","4","1",9.45653629302979,17,0.719,"hearts test","0.75","left","PLUS Fall","heart","plus","X1"
"27","4","1",9.45653629302979,20,0.582,"hearts test","0.75","right","PLUS Fall","heart","plus","X1"
"28","4","1",9.45653629302979,43,0.542,"mixed test heart","0.75","right","PLUS Fall","heart","plus","X0"
"29","4","0",10.1273097991943,12,0.38,"hearts test","0.75","right","PLUS Fall","heart","plus","X1"
"30","4","0",10.1273097991943,13,0.425,"hearts test","0.75","right","PLUS Fall","heart","plus","X1"
"31","4","0",10.1273097991943,15,0.362,"hearts test","0.75","right","PLUS Fall","heart","plus","X1"
"32","4","0",10.1273097991943,44,0.506,"mixed test heart","0.75","left","PLUS Fall","heart","plus","X0"
"33","4","0",10.1273097991943,48,0.659,"mixed test heart","0.75","left","PLUS Fall","heart","plus","X1"
"34","4","0",9,12,0.395,"hearts test","0.75","right","PLUS Fall","heart","plus","X1"
"35","4","0",9,20,0.344,"hearts test","0.75","right","PLUS Fall","heart","plus","X1"
"36","4","0",9,59,0.723,"mixed test heart","0.75","left","PLUS Fall","heart","plus","X1"
"37","4","0",9,69,0.568,"mixed test heart","0.75","right","PLUS Fall","heart","plus","X1"
"38","4","1",10.2915811538696,19,0.7,"hearts test","0.75","left","PLUS Fall","heart","plus","X1"
"39","4","1",10.2915811538696,42,0.533,"mixed test heart","0.75","right","PLUS Fall","heart","plus","X1"
"40","4","1",10.2915811538696,65,0.238,"mixed test heart","0.75","left","PLUS Fall","heart","plus","X1"
"41","4","1",9.87542819976807,9,0.558,"hearts test","0.75","right","PLUS Fall","heart","plus","X1"
"42","4","1",9.87542819976807,16,0.636,"hearts test","0.75","right","PLUS Fall","heart","plus","X1"
"43","4","1",9.87542819976807,70,0.006,"mixed test heart","0.75","right","PLUS Fall","heart","plus","X0"
"44","4","1",9.96030139923096,16,0.525,"hearts test","0.75","right","PLUS Fall","heart","plus","X1"
"45","4","1",9.96030139923096,18,0.495,"hearts test","0.75","left","PLUS Fall","heart","plus","X1"
"46","4","1",9.96030139923096,68,0.726,"mixed test heart","0.75","left","PLUS Fall","heart","plus","X1"
"47","4","0",9.70841884613037,43,0.634,"mixed test heart","0.75","right","PLUS Fall","heart","plus","X1"
"48","4","0",9.70841884613037,64,0.721,"mixed test heart","0.75","left","PLUS Fall","heart","plus","X1"
"49","4","0",10,11,0.535,"hearts test","0.75","left","PLUS Fall","heart","plus","X1"
"50","4","0",10,14,0.482,"hearts test","0.75","left","PLUS Fall","heart","plus","X1"
"51","4","0",10,65,0.623,"mixed test heart","0.75","left","PLUS Fall","heart","plus","X1"
"52","4","0",10.2067079544067,9,0.531,"hearts test","0.75","right","PLUS Fall","heart","plus","X1"
"53","4","0",10.2067079544067,15,0,"hearts test","0.75","right","PLUS Fall","heart","plus","X1"
"54","4","0",10.2067079544067,16,0.034,"hearts test","0.75","right","PLUS Fall","heart","plus","X0"
"55","4","0",10.2067079544067,64,0.044,"mixed test heart","0.75","left","PLUS Fall","heart","plus","X1"
"56","4","1",9.70841884613037,19,0.51,"hearts test","0.75","left","PLUS Fall","heart","plus","X1"
"57","4","1",9.70841884613037,13,0.547,"hearts test","0.75","right","PLUS Fall","heart","plus","X1"
"58","4","1",9.70841884613037,19,0.465,"hearts test","0.75","left","PLUS Fall","heart","plus","X1"
"59","4","0",10.2067079544067,14,0.367,"hearts test","0.75","left","PLUS Fall","heart","plus","X1"
"60","4","0",10.2067079544067,15,0.428,"hearts test","0.75","right","PLUS Fall","heart","plus","X1"
"61","4","0",10.2067079544067,55,0.597,"mixed test heart","0.75","right","PLUS Fall","heart","plus","X0"
"62","4","0",10.2067079544067,70,0.579,"mixed test heart","0.75","right","PLUS Fall","heart","plus","X0"
"63","4","0",10.2067079544067,14,0.399,"hearts test","0.75","left","PLUS Fall","heart","plus","X1"
"64","4","0",10.2067079544067,17,0.04,"hearts test","0.75","left","PLUS Fall","heart","plus","X0"
"65","4","0",10.2067079544067,60,0.453,"mixed test heart","0.75","right","PLUS Fall","heart","plus","X1"
"66","4","1",9.98176574707031,9,0.629,"hearts test","0.75","right","PLUS Fall","heart","plus","X1"
"67","4","1",9.98176574707031,14,0.378,"hearts test","0.75","left","PLUS Fall","heart","plus","X1"
"68","4","1",9.3744010925293,9,0.669,"hearts test","0.75","right","PLUS Fall","heart","plus","X1"
"69","4","1",9.3744010925293,10,0.394,"hearts test","0.75","left","PLUS Fall","heart","plus","X1"
"70","4","1",9.3744010925293,13,0.437,"hearts test","0.75","right","PLUS Fall","heart","plus","X1"
"71","4","1",9.3744010925293,17,0.494,"hearts test","0.75","left","PLUS Fall","heart","plus","X1"
"72","4","1",9.3744010925293,51,0.711,"mixed test heart","0.75","right","PLUS Fall","heart","plus","X1"
"73","4","1",9.3744010925293,64,0.551,"mixed test heart","0.75","left","PLUS Fall","heart","plus","X1"
"74","4","1",10.0424365997314,17,0.389,"hearts test","0.75","left","PLUS Fall","heart","plus","X1"
"75","4","0",10.3764543533325,15,0.488,"hearts test","0.75","right","PLUS Fall","heart","plus","X1"
"76","4","0",10.1273097991943,10,0.423,"hearts test","0.75","left","PLUS Fall","heart","plus","X1"
"77","4","0",10.1273097991943,17,0.4,"hearts test","0.75","left","PLUS Fall","heart","plus","X1"
"78","4","1",10.2915811538696,18,0.357,"hearts test","0.75","left","PLUS Fall","heart","plus","X0"
"79","4","0",9.62354564666748,11,0.538,"hearts test","0.75","left","PLUS Fall","heart","plus","X1"
"80","4","0",9.62354564666748,13,0.489,"hearts test","0.75","right","PLUS Fall","heart","plus","X1"
"81","4","0",9.62354564666748,44,0.677,"mixed test heart","0.75","left","PLUS Fall","heart","plus","X1"
"82","3","1",8.79397678375244,14,0.544,"hearts test","0.75","left","PLUS Fall","heart","plus","X1"
"83","3","1",8.79397678375244,48,0.699,"mixed test heart","0.75","left","PLUS Fall","heart","plus","X1"
"84","3","1",9.12799453735352,18,0.517,"hearts test","0.75","left","PLUS Fall","heart","plus","X1"
"85","3","0",9.12799453735352,13,0.523,"hearts test","0.75","right","PLUS Fall","heart","plus","X1"
"86","3","0",9.12799453735352,19,0.701,"hearts test","0.75","left","PLUS Fall","heart","plus","X1"
"87","3","0",9.12799453735352,60,0.487,"mixed test heart","0.75","right","PLUS Fall","heart","plus","X1"
"88","3","0",9.12799453735352,64,0.691,"mixed test heart","0.75","left","PLUS Fall","heart","plus","X1"
"89","3","1",8.79397678375244,10,0.662,"hearts test","0.75","left","PLUS Fall","heart","plus","X1"
"90","3","1",8.79397678375244,53,0.727,"mixed test heart","0.75","left","PLUS Fall","heart","plus","X1"
"91","3","1",8.79397678375244,55,0.68,"mixed test heart","0.75","right","PLUS Fall","heart","plus","X0"
"92","3","1",8.96098518371582,10,0.687,"hearts test","0.75","left","PLUS Fall","heart","plus","X1"
"93","3","1",9,9,0.42,"hearts test","0.75","right","PLUS Fall","heart","plus","X1"
"94","3","1",9,11,0.422,"hearts test","0.75","left","PLUS Fall","heart","plus","X1"
"95","3","1",9,42,0.671,"mixed test heart","0.75","right","PLUS Fall","heart","plus","X1"
"96","3","1",9,65,0.711,"mixed test heart","0.75","left","PLUS Fall","heart","plus","X1"
"97","3","1",9,68,0.672,"mixed test heart","0.75","left","PLUS Fall","heart","plus","X0"
"98","3","0",8.87611198425293,12,0.551,"hearts test","0.75","right","PLUS Fall","heart","plus","X1"
"99","3","0",8.87611198425293,14,0.534,"hearts test","0.75","left","PLUS Fall","heart","plus","X1"
"100","3","0",8.87611198425293,19,0.584,"hearts test","0.75","left","PLUS Fall","heart","plus","X1"
"101","3","0",8.87611198425293,42,0.684,"mixed test heart","0.75","right","PLUS Fall","heart","plus","X1"
"102","3","0",8.87611198425293,59,0.655,"mixed test heart","0.75","left","PLUS Fall","heart","plus","X0"
"103","3","1",8.45722103118896,42,0.508,"mixed test heart","0.75","right","PLUS Fall","heart","plus","X1"
"104","3","0",8.37508583068848,13,0.435,"hearts test","0.75","right","PLUS Fall","heart","plus","X1"
"105","3","0",8.37508583068848,42,0.514,"mixed test heart","0.75","right","PLUS Fall","heart","plus","X1"
"106","3","0",8.37508583068848,43,0.577,"mixed test heart","0.75","right","PLUS Fall","heart","plus","X1"
"107","3","1",8.37508583068848,11,0.562,"hearts test","0.75","left","PLUS Fall","heart","plus","X1"
"108","3","1",8.37508583068848,12,0.513,"hearts test","0.75","right","PLUS Fall","heart","plus","X1"
"109","3","1",8.37508583068848,44,0.578,"mixed test heart","0.75","left","PLUS Fall","heart","plus","X1"
"110","3","1",8.37508583068848,51,0.602,"mixed test heart","0.75","right","PLUS Fall","heart","plus","X1"
"111","3","1",8.37508583068848,64,0.543,"mixed test heart","0.75","left","PLUS Fall","heart","plus","X1"
"112","3","1",8.37508583068848,68,0.644,"mixed test heart","0.75","left","PLUS Fall","heart","plus","X0"
"113","3","1",9.20465469360352,15,0.405,"hearts test","0.75","right","PLUS Fall","heart","plus","X1"
"114","3","1",9.20465469360352,19,0.516,"hearts test","0.75","left","PLUS Fall","heart","plus","X1"
"115","3","0",8.96098518371582,12,0.698,"hearts test","0.75","right","PLUS Fall","heart","plus","X1"
"116","3","0",8.96098518371582,14,0.445,"hearts test","0.75","left","PLUS Fall","heart","plus","X1"
"117","3","0",8.96098518371582,48,0.653,"mixed test heart","0.75","left","PLUS Fall","heart","plus","X1"
"118","3","0",8.96098518371582,68,0.682,"mixed test heart","0.75","left","PLUS Fall","heart","plus","X1"
"119","3","1",8.87611198425293,10,0.49,"hearts test","0.75","left","PLUS Fall","heart","plus","X1"
"120","3","1",8.87611198425293,12,0.531,"hearts test","0.75","right","PLUS Fall","heart","plus","X1"
"121","3","1",8.87611198425293,17,0.708,"hearts test","0.75","left","PLUS Fall","heart","plus","X1"
"122","3","1",8.87611198425293,18,0.726,"hearts test","0.75","left","PLUS Fall","heart","plus","X1"
"123","3","0",8.45722103118896,12,0.404,"hearts test","0.75","right","PLUS Fall","heart","plus","X1"
"124","3","0",8.45722103118896,13,0.442,"hearts test","0.75","right","PLUS Fall","heart","plus","X1"
"125","3","0",8.45722103118896,15,0.338,"hearts test","0.75","right","PLUS Fall","heart","plus","X1"
"126","3","0",8.45722103118896,19,0.525,"hearts test","0.75","left","PLUS Fall","heart","plus","X1"
"127","3","0",8.45722103118896,44,0.612,"mixed test heart","0.75","left","PLUS Fall","heart","plus","X1"
"128","3","0",8.45722103118896,53,0.659,"mixed test heart","0.75","left","PLUS Fall","heart","plus","X1"
"129","3","0",8.45722103118896,60,0.726,"mixed test heart","0.75","right","PLUS Fall","heart","plus","X0"
"130","3","0",8.45722103118896,65,0.507,"mixed test heart","0.75","left","PLUS Fall","heart","plus","X1"
"131","3","1",8.96098518371582,9,0.623,"hearts test","0.75","right","PLUS Fall","heart","plus","X1"
"132","3","1",8.96098518371582,15,0.401,"hearts test","0.75","right","PLUS Fall","heart","plus","X1"
"133","3","1",8.96098518371582,19,0.607,"hearts test","0.75","left","PLUS Fall","heart","plus","X1"
"134","3","1",8.96098518371582,69,0.602,"mixed test heart","0.75","right","PLUS Fall","heart","plus","X1"
"135","3","1",9.12799453735352,20,0.5,"hearts test","0.75","right","PLUS Fall","heart","plus","X1"
"136","3","1",9.12799453735352,65,0.648,"mixed test heart","0.75","left","PLUS Fall","heart","plus","X1"
"137","3","1",9,18,0.568,"hearts test","0.75","left","PLUS Fall","heart","plus","X1"
"138","3","1",9,64,0.544,"mixed test heart","0.75","left","PLUS Fall","heart","plus","X1"
"139","3","1",8.37508583068848,14,0.373,"hearts test","0.75","left","PLUS Fall","heart","plus","X1"
"140","3","1",8.37508583068848,17,0.437,"hearts test","0.75","left","PLUS Fall","heart","plus","X1"
"141","3","1",8.37508583068848,52,0.735,"mixed test heart","0.75","left","PLUS Fall","heart","plus","X1"
"142","3","1",8.37508583068848,65,0.526,"mixed test heart","0.75","left","PLUS Fall","heart","plus","X1"
"143","3","1",8.96098518371582,64,0.599,"mixed test heart","0.75","left","PLUS Fall","heart","plus","X0"
"144","3","0",9.20465469360352,12,0.528,"hearts test","0.75","right","PLUS Fall","heart","plus","X1"
"145","3","0",9.20465469360352,15,0.449,"hearts test","0.75","right","PLUS Fall","heart","plus","X1"
"146","3","0",9.20465469360352,53,0.648,"mixed test heart","0.75","left","PLUS Fall","heart","plus","X1"
"147","3","0",9.20465469360352,59,0.71,"mixed test heart","0.75","left","PLUS Fall","heart","plus","X1"
"148","3","1",9,15,0.414,"hearts test","0.75","right","PLUS Fall","heart","plus","X1"
"149","3","1",9,16,0.509,"hearts test","0.75","right","PLUS Fall","heart","plus","X1"
"150","3","1",9,19,0.46,"hearts test","0.75","left","PLUS Fall","heart","plus","X1"
"151","3","0",9.12799453735352,12,0.45,"hearts test","0.75","right","PLUS Fall","heart","plus","X1"
"152","3","0",9.04312133789062,11,0.493,"hearts test","0.75","left","PLUS Fall","heart","plus","X1"
"153","3","0",9.04312133789062,51,0.668,"mixed test heart","0.75","right","PLUS Fall","heart","plus","X1"
"154","3","0",9.04312133789062,53,0.523,"mixed test heart","0.75","left","PLUS Fall","heart","plus","X0"
"155","3","0",9.04312133789062,65,0.534,"mixed test heart","0.75","left","PLUS Fall","heart","plus","X1"
"156","3","0",8,52,0.708,"mixed test heart","0.75","left","PLUS Fall","heart","plus","X1"
"157","3","1",8.87611198425293,14,0.396,"hearts test","0.75","left","PLUS Fall","heart","plus","X1"
"158","3","1",8.87611198425293,20,0.462,"hearts test","0.75","right","PLUS Fall","heart","plus","X1"
"159","3","1",8.87611198425293,69,0.656,"mixed test heart","0.75","right","PLUS Fall","heart","plus","X1"
"160","3","1",8.45722103118896,14,0.385,"hearts test","0.75","left","PLUS Fall","heart","plus","X1"
"161","3","1",8.45722103118896,20,0.526,"hearts test","0.75","right","PLUS Fall","heart","plus","X1"
"162","3","1",8.45722103118896,44,0.701,"mixed test heart","0.75","left","PLUS Fall","heart","plus","X0"
"163","3","1",9.54141044616699,9,0.493,"hearts test","0.75","right","PLUS Fall","heart","plus","X1"
"164","3","1",9.54141044616699,16,0.686,"hearts test","0.75","right","PLUS Fall","heart","plus","X1"
"165","3","1",9.54141044616699,53,0.699,"mixed test heart","0.75","left","PLUS Fall","heart","plus","X1"
"166","3","1",9.54141044616699,69,0.519,"mixed test heart","0.75","right","PLUS Fall","heart","plus","X0"
"167","3","1",9.20465469360352,9,0.493,"hearts test","0.75","right","PLUS Fall","heart","plus","X1"
"168","3","1",9.20465469360352,10,0.382,"hearts test","0.75","left","PLUS Fall","heart","plus","X1"
"169","3","1",9.20465469360352,48,0.742,"mixed test heart","0.75","left","PLUS Fall","heart","plus","X1"
"170","3","0",8.70910358428955,9,0.553,"hearts test","0.75","right","PLUS Fall","heart","plus","X1"
"171","3","0",8.70910358428955,11,0.386,"hearts test","0.75","left","PLUS Fall","heart","plus","X1"
"172","3","0",8.70910358428955,17,0.354,"hearts test","0.75","left","PLUS Fall","heart","plus","X1"
"173","3","0",8.70910358428955,20,0.297,"hearts test","0.75","right","PLUS Fall","heart","plus","X1"
"174","3","0",8.70910358428955,60,0.527,"mixed test heart","0.75","right","PLUS Fall","heart","plus","X0"
"175","3","1",9.20465469360352,10,0.603,"hearts test","0.75","left","PLUS Fall","heart","plus","X1"
"176","3","1",9.20465469360352,18,0.476,"hearts test","0.75","left","PLUS Fall","heart","plus","X1"
"177","3","1",9.20465469360352,62,0.702,"mixed test heart","0.75","right","PLUS Fall","heart","plus","X0"
"178","3","1",9.3744010925293,16,0.414,"hearts test","0.75","right","PLUS Fall","heart","plus","X1"
"179","3","1",9.3744010925293,52,0.743,"mixed test heart","0.75","left","PLUS Fall","heart","plus","X0"
"180","3","1",9.3744010925293,64,0.524,"mixed test heart","0.75","left","PLUS Fall","heart","plus","X1"
"181","3","0",9.12799453735352,9,0.454,"hearts test","0.75","right","PLUS Fall","heart","plus","X1"
"182","3","0",9.12799453735352,52,0.459,"mixed test heart","0.75","left","PLUS Fall","heart","plus","X1"
"183","3","0",9.12799453735352,62,0.571,"mixed test heart","0.75","right","PLUS Fall","heart","plus","X1"
"184","3","0",9.12799453735352,13,0.409,"hearts test","0.75","right","PLUS Fall","heart","plus","X1"
"185","3","0",9.12799453735352,14,0.43,"hearts test","0.75","left","PLUS Fall","heart","plus","X1"
"186","3","0",9.12799453735352,18,0.566,"hearts test","0.75","left","PLUS Fall","heart","plus","X1"
"187","3","0",9.12799453735352,65,0.63,"mixed test heart","0.75","left","PLUS Fall","heart","plus","X1"
"188","3","1",9.28952789306641,14,0.415,"hearts test","0.75","left","PLUS Fall","heart","plus","X1"
"189","3","0",8.70910358428955,13,0.531,"hearts test","0.75","right","PLUS Fall","heart","plus","X1"
"190","3","0",8.70910358428955,14,0.469,"hearts test","0.75","left","PLUS Fall","heart","plus","X1"
"191","3","0",8.70910358428955,15,0.426,"hearts test","0.75","right","PLUS Fall","heart","plus","X1"
"192","3","0",8.70910358428955,20,0.547,"hearts test","0.75","right","PLUS Fall","heart","plus","X1"
"193","3","0",8.70910358428955,53,0.006,"mixed test heart","0.75","left","PLUS Fall","heart","plus","X1"
"194","3","0",8.70910358428955,68,0.371,"mixed test heart","0.75","left","PLUS Fall","heart","plus","X0"
"195","3","0",8.96098518371582,10,0.367,"hearts test","0.75","left","PLUS Fall","heart","plus","X1"
"196","3","0",8.96098518371582,18,0.519,"hearts test","0.75","left","PLUS Fall","heart","plus","X1"
"197","3","0",8.96098518371582,42,0.376,"mixed test heart","0.75","right","PLUS Fall","heart","plus","X1"
"198","3","0",8.96098518371582,43,0.504,"mixed test heart","0.75","right","PLUS Fall","heart","plus","X1"
"199","3","0",8.96098518371582,59,0.515,"mixed test heart","0.75","left","PLUS Fall","heart","plus","X0"
"200","3","0",8.96098518371582,69,0.62,"mixed test heart","0.75","right","PLUS Fall","heart","plus","X1"
"201","3","1",8,9,0.585,"hearts test","0.75","right","PLUS Fall","heart","plus","X1"
"202","3","1",8,55,0.735,"mixed test heart","0.75","right","PLUS Fall","heart","plus","X0"
"203","3","1",8,62,0.586,"mixed test heart","0.75","right","PLUS Fall","heart","plus","X1"
"204","3","0",8.70910358428955,10,0.421,"hearts test","0.75","left","PLUS Fall","heart","plus","X1"
"205","3","0",8.70910358428955,20,0.401,"hearts test","0.75","right","PLUS Fall","heart","plus","X1"
"206","3","0",8.70910358428955,51,0.623,"mixed test heart","0.75","right","PLUS Fall","heart","plus","X1"
"207","3","0",8.70910358428955,70,0.438,"mixed test heart","0.75","right","PLUS Fall","heart","plus","X1"
"208","3","1",9.28952789306641,64,0.686,"mixed test heart","0.75","left","PLUS Fall","heart","plus","X1"
"209","4","0",9.79329204559326,11,0.482,"hearts test","0.75","left","PLUS Fall","heart","plus","X1"
"210","4","0",9.79329204559326,59,0.645,"mixed test heart","0.75","left","PLUS Fall","heart","plus","X1"
"211","4","1",9.54141044616699,10,0.631,"hearts test","0.75","left","PLUS Fall","heart","plus","X1"
"212","4","1",9.54141044616699,17,0.362,"hearts test","0.75","left","PLUS Fall","heart","plus","X1"
"213","4","1",9.54141044616699,18,0.53,"hearts test","0.75","left","PLUS Fall","heart","plus","X1"
"214","4","1",9.54141044616699,51,0.514,"mixed test heart","0.75","right","PLUS Fall","heart","plus","X1"
"215","4","1",10.2067079544067,9,0.399,"hearts test","0.75","right","PLUS Fall","heart","plus","X1"
"216","4","1",10.2067079544067,10,0.398,"hearts test","0.75","left","PLUS Fall","heart","plus","X1"
"217","4","1",10.2067079544067,70,0.491,"mixed test heart","0.75","right","PLUS Fall","heart","plus","X1"
"218","4","0",10.2067079544067,15,0.434,"hearts test","0.75","right","PLUS Fall","heart","plus","X1"
"219","4","0",10.2067079544067,62,0.133,"mixed test heart","0.75","right","PLUS Fall","heart","plus","X0"
"220","4","1",10.1273097991943,42,0.66,"mixed test heart","0.75","right","PLUS Fall","heart","plus","X1"
"221","4","1",10.1273097991943,43,0.524,"mixed test heart","0.75","right","PLUS Fall","heart","plus","X1"
"222","4","0",10.458589553833,44,0.666,"mixed test heart","0.75","left","PLUS Fall","heart","plus","X1"
"223","4","0",10.458589553833,62,0.517,"mixed test heart","0.75","right","PLUS Fall","heart","plus","X1"
"224","4","0",10.458589553833,69,0.541,"mixed test heart","0.75","right","PLUS Fall","heart","plus","X1"
"225","4","1",9.62354564666748,12,0.591,"hearts test","0.75","right","PLUS Fall","heart","plus","X1"
"226","4","1",9.62354564666748,13,0.626,"hearts test","0.75","right","PLUS Fall","heart","plus","X1"
"227","4","1",9.62354564666748,68,0.616,"mixed test heart","0.75","left","PLUS Fall","heart","plus","X1"
"228","4","0",9.62354564666748,9,0.478,"hearts test","0.75","right","PLUS Fall","heart","plus","X1"
"229","4","0",9.62354564666748,15,0.359,"hearts test","0.75","right","PLUS Fall","heart","plus","X1"
"230","4","0",9.62354564666748,43,0.737,"mixed test heart","0.75","right","PLUS Fall","heart","plus","X1"
"231","4","1",9.45653629302979,10,0.702,"hearts test","0.75","left","PLUS Fall","heart","plus","X1"
"232","4","1",9.87542819976807,13,0.607,"hearts test","0.75","right","PLUS Fall","heart","plus","X0"
"233","4","1",9.87542819976807,18,0.59,"hearts test","0.75","left","PLUS Fall","heart","plus","X1"
"234","4","0",9.62354564666748,14,0.405,"hearts test","0.75","left","PLUS Fall","heart","plus","X1"
"235","4","0",9.62354564666748,17,0.437,"hearts test","0.75","left","PLUS Fall","heart","plus","X1"
"236","4","0",9.62354564666748,44,0.676,"mixed test heart","0.75","left","PLUS Fall","heart","plus","X1"
"237","4","0",9.62354564666748,64,0.602,"mixed test heart","0.75","left","PLUS Fall","heart","plus","X1"
"238","4","0",9.62354564666748,70,0.714,"mixed test heart","0.75","right","PLUS Fall","heart","plus","X1"
"239","4","1",10.2067079544067,13,0.466,"hearts test","0.75","right","PLUS Fall","heart","plus","X1"
"240","4","1",10.2067079544067,15,0.484,"hearts test","0.75","right","PLUS Fall","heart","plus","X1"
"241","4","1",10.2067079544067,48,0.722,"mixed test heart","0.75","left","PLUS Fall","heart","plus","X0"
"242","4","1",10.2067079544067,51,0.718,"mixed test heart","0.75","right","PLUS Fall","heart","plus","X0"
"243","4","1",10.2067079544067,60,0.674,"mixed test heart","0.75","right","PLUS Fall","heart","plus","X0"
"244","4","1",10.2067079544067,70,0.608,"mixed test heart","0.75","right","PLUS Fall","heart","plus","X1"
"245","4","0",9.96030139923096,13,0.578,"hearts test","0.75","right","PLUS Fall","heart","plus","X1"
"246","4","0",9.96030139923096,17,0.407,"hearts test","0.75","left","PLUS Fall","heart","plus","X1"
"247","4","0",9.79329204559326,14,0.609,"hearts test","0.75","left","PLUS Fall","heart","plus","X1"
"248","4","0",9.79329204559326,19,0.73,"hearts test","0.75","left","PLUS Fall","heart","plus","X1"
"249","4","0",9.79329204559326,62,0.578,"mixed test heart","0.75","right","PLUS Fall","heart","plus","X0"
"250","4","0",10.458589553833,12,0.442,"hearts test","0.75","right","PLUS Fall","heart","plus","X1"
"251","4","0",10.458589553833,13,0.657,"hearts test","0.75","right","PLUS Fall","heart","plus","X1"
"252","4","0",10.458589553833,19,0.672,"hearts test","0.75","left","PLUS Fall","heart","plus","X1"
"253","4","0",10.1273097991943,20,0.448,"hearts test","0.75","right","PLUS Fall","heart","plus","X1"
"254","4","0",9.79329204559326,9,0.552,"hearts test","0.75","right","PLUS Fall","heart","plus","X1"
"255","4","0",9.79329204559326,19,0.602,"hearts test","0.75","left","PLUS Fall","heart","plus","X1"
"256","4","0",9.79329204559326,68,0.489,"mixed test heart","0.75","left","PLUS Fall","heart","plus","X0"
"257","4","1",10.5434637069702,13,0.674,"hearts test","0.75","right","PLUS Fall","heart","plus","X1"
"258","4","1",10.5434637069702,17,0.574,"hearts test","0.75","left","PLUS Fall","heart","plus","X1"
"259","4","1",10.5434637069702,20,0.485,"hearts test","0.75","right","PLUS Fall","heart","plus","X1"
"260","4","1",10.5434637069702,43,0.635,"mixed test heart","0.75","right","PLUS Fall","heart","plus","X1"
"261","4","1",10.5434637069702,64,0.645,"mixed test heart","0.75","left","PLUS Fall","heart","plus","X0"
"262","4","1",9.70841884613037,12,0.444,"hearts test","0.75","right","PLUS Fall","heart","plus","X1"
"263","4","1",9.70841884613037,55,0.715,"mixed test heart","0.75","right","PLUS Fall","heart","plus","X1"
"264","4","1",9.70841884613037,59,0.719,"mixed test heart","0.75","left","PLUS Fall","heart","plus","X1"
"265","4","1",9.62354564666748,9,0.649,"hearts test","0.75","right","PLUS Fall","heart","plus","X1"
"266","4","1",9.62354564666748,12,0.472,"hearts test","0.75","right","PLUS Fall","heart","plus","X1"
"267","4","1",9.62354564666748,20,0.554,"hearts test","0.75","right","PLUS Fall","heart","plus","X1"
"268","4","1",9.62354564666748,65,0.285,"mixed test heart","0.75","left","PLUS Fall","heart","plus","X1"
"269","4","0",9.79329204559326,9,0.669,"hearts test","0.75","right","PLUS Fall","heart","plus","X1"
"270","4","0",9.79329204559326,10,0.499,"hearts test","0.75","left","PLUS Fall","heart","plus","X1"
"271","4","0",9.79329204559326,11,0.661,"hearts test","0.75","left","PLUS Fall","heart","plus","X1"
"272","4","0",9.79329204559326,52,0.633,"mixed test heart","0.75","left","PLUS Fall","heart","plus","X1"
"273","4","0",9.45653629302979,14,0.548,"hearts test","0.75","left","PLUS Fall","heart","plus","X1"
"274","4","0",9.45653629302979,20,0.465,"hearts test","0.75","right","PLUS Fall","heart","plus","X1"
"275","4","0",9.45653629302979,59,0.539,"mixed test heart","0.75","left","PLUS Fall","heart","plus","X1"
"276","4","0",9.45653629302979,70,0.604,"mixed test heart","0.75","right","PLUS Fall","heart","plus","X1"
"277","4","1",9.87542819976807,9,0.58,"hearts test","0.75","right","PLUS Fall","heart","plus","X1"
"278","4","1",9.87542819976807,14,0.604,"hearts test","0.75","left","PLUS Fall","heart","plus","X1"
"279","4","1",9.87542819976807,55,0.66,"mixed test heart","0.75","right","PLUS Fall","heart","plus","X0"
"280","4","1",9.87542819976807,59,0.671,"mixed test heart","0.75","left","PLUS Fall","heart","plus","X1"
"281","4","0",10,12,0.398,"hearts test","0.75","right","PLUS Fall","heart","plus","X1"
"282","4","0",10,17,0.401,"hearts test","0.75","left","PLUS Fall","heart","plus","X1"
"283","4","0",10,18,0.545,"hearts test","0.75","left","PLUS Fall","heart","plus","X1"
"284","4","0",10,20,0.344,"hearts test","0.75","right","PLUS Fall","heart","plus","X1"
"285","4","0",10,64,0.568,"mixed test heart","0.75","left","PLUS Fall","heart","plus","X0"
"286","4","0",10,68,0,"mixed test heart","0.75","left","PLUS Fall","heart","plus","X1"
"287","4","1",9.79329204559326,16,0.697,"hearts test","0.75","right","PLUS Fall","heart","plus","X1"
"288","4","1",9.79329204559326,17,0.634,"hearts test","0.75","left","PLUS Fall","heart","plus","X1"
"289","4","1",9.79329204559326,65,0.74,"mixed test heart","0.75","left","PLUS Fall","heart","plus","X1"
"290","4","0",10,10,0.583,"hearts test","0.75","left","PLUS Fall","heart","plus","X1"
"291","4","0",10,51,0.639,"mixed test heart","0.75","right","PLUS Fall","heart","plus","X1"
"292","4","0",10,52,0.698,"mixed test heart","0.75","left","PLUS Fall","heart","plus","X1"
"293","4","1",9.79329204559326,15,0.525,"hearts test","0.75","right","PLUS Fall","heart","plus","X1"
"294","4","1",9.79329204559326,62,0.611,"mixed test heart","0.75","right","PLUS Fall","heart","plus","X1"
"295","4","1",9.79329204559326,69,0.679,"mixed test heart","0.75","right","PLUS Fall","heart","plus","X1"
"296","4","0",10.1273097991943,69,0.556,"mixed test heart","0.75","right","PLUS Fall","heart","plus","X1"
"297","4","1",9.96030139923096,10,0,"hearts test","0.75","left","PLUS Fall","heart","plus","X1"
"298","4","1",9.96030139923096,14,0.416,"hearts test","0.75","left","PLUS Fall","heart","plus","X1"
"299","4","1",9.96030139923096,20,0.378,"hearts test","0.75","right","PLUS Fall","heart","plus","X1"
"300","4","1",9.96030139923096,69,0.499,"mixed test heart","0.75","right","PLUS Fall","heart","plus","X1"
"301","3","1",9.3744010925293,13,0.47,"hearts test","0.75","right","PLUS Fall","heart","plus","X1"
"302","3","1",9.3744010925293,18,0.468,"hearts test","0.75","left","PLUS Fall","heart","plus","X1"
"303","3","1",9.3744010925293,43,0.631,"mixed test heart","0.75","right","PLUS Fall","heart","plus","X1"
"304","3","0",8.37508583068848,9,0.523,"hearts test","0.75","right","PLUS Fall","heart","plus","X1"
"305","3","0",8.37508583068848,20,0.5,"hearts test","0.75","right","PLUS Fall","heart","plus","X1"
"306","3","0",8.37508583068848,53,0.604,"mixed test heart","0.75","left","PLUS Fall","heart","plus","X1"
"307","3","0",8.87611198425293,18,0.644,"hearts test","0.75","left","PLUS Fall","heart","plus","X1"
"308","3","0",8.87611198425293,59,0.727,"mixed test heart","0.75","left","PLUS Fall","heart","plus","X1"
"309","3","0",8.87611198425293,62,0.627,"mixed test heart","0.75","right","PLUS Fall","heart","plus","X1"
"310","3","0",8.87611198425293,64,0.544,"mixed test heart","0.75","left","PLUS Fall","heart","plus","X0"
"311","3","1",8.45722103118896,18,0.548,"hearts test","0.75","left","PLUS Fall","heart","plus","X1"
"312","3","1",8.45722103118896,43,0.613,"mixed test heart","0.75","right","PLUS Fall","heart","plus","X1"
"313","3","1",8.45722103118896,53,0.548,"mixed test heart","0.75","left","PLUS Fall","heart","plus","X1"
"314","3","1",8.45722103118896,55,0.677,"mixed test heart","0.75","right","PLUS Fall","heart","plus","X1"
"315","3","1",8.45722103118896,60,0.584,"mixed test heart","0.75","right","PLUS Fall","heart","plus","X0"
"316","3","0",8.96098518371582,43,0.503,"mixed test heart","0.75","right","PLUS Fall","heart","plus","X1"
"317","3","0",8.96098518371582,62,0.671,"mixed test heart","0.75","right","PLUS Fall","heart","plus","X1"
"318","3","0",9.20465469360352,9,0.361,"hearts test","0.75","right","PLUS Fall","heart","plus","X1"
"319","3","0",9.3744010925293,18,0.5,"hearts test","0.75","left","PLUS Fall","heart","plus","X1"
"320","3","0",9.3744010925293,43,0.741,"mixed test heart","0.75","right","PLUS Fall","heart","plus","X1"
"321","3","0",9.3744010925293,51,0.732,"mixed test heart","0.75","right","PLUS Fall","heart","plus","X1"
"322","3","0",9.3744010925293,70,0.626,"mixed test heart","0.75","right","PLUS Fall","heart","plus","X1"
"323","3","0",9.54141044616699,55,0.636,"mixed test heart","0.75","right","PLUS Fall","heart","plus","X0"
"324","3","0",9.54141044616699,70,0.56,"mixed test heart","0.75","right","PLUS Fall","heart","plus","X1"
"325","3","1",8.62423038482666,16,0.45,"hearts test","0.75","right","PLUS Fall","heart","plus","X1"
"326","3","1",8.62423038482666,17,0.641,"hearts test","0.75","left","PLUS Fall","heart","plus","X1"
"327","3","1",8.62423038482666,64,0.679,"mixed test heart","0.75","left","PLUS Fall","heart","plus","X0"
"328","3","0",9.3744010925293,10,0.522,"hearts test","0.75","left","PLUS Fall","heart","plus","X1"
"329","3","0",9.3744010925293,17,0.646,"hearts test","0.75","left","PLUS Fall","heart","plus","X1"
"330","3","0",9.3744010925293,20,0.624,"hearts test","0.75","right","PLUS Fall","heart","plus","X1"
"331","3","0",9.3744010925293,59,0.592,"mixed test heart","0.75","left","PLUS Fall","heart","plus","X0"
"332","3","0",8.62423038482666,17,0.391,"hearts test","0.75","left","PLUS Fall","heart","plus","X1"
"333","3","0",8.62423038482666,19,0.579,"hearts test","0.75","left","PLUS Fall","heart","plus","X1"
"334","3","0",8.62423038482666,65,0.654,"mixed test heart","0.75","left","PLUS Fall","heart","plus","X1"
"335","3","1",10,42,0.712,"mixed test heart","0.75","right","PLUS Fall","heart","plus","X0"
"336","3","1",10,55,0.725,"mixed test heart","0.75","right","PLUS Fall","heart","plus","X0"
"337","3","1",9.12799453735352,13,0.606,"hearts test","0.75","right","PLUS Fall","heart","plus","X1"
"338","3","1",9.12799453735352,16,0.624,"hearts test","0.75","right","PLUS Fall","heart","plus","X1"
"339","3","1",9.12799453735352,65,0.395,"mixed test heart","0.75","left","PLUS Fall","heart","plus","X1"
"340","3","0",8.87611198425293,15,0.477,"hearts test","0.75","right","PLUS Fall","heart","plus","X1"
"341","3","0",8.87611198425293,19,0.651,"hearts test","0.75","left","PLUS Fall","heart","plus","X1"
"342","3","1",8.62423038482666,11,0.666,"hearts test","0.75","left","PLUS Fall","heart","plus","X1"
"343","3","1",8.62423038482666,14,0.482,"hearts test","0.75","left","PLUS Fall","heart","plus","X1"
"344","3","1",8.62423038482666,17,0.502,"hearts test","0.75","left","PLUS Fall","heart","plus","X1"
"345","3","1",8.62423038482666,19,0.715,"hearts test","0.75","left","PLUS Fall","heart","plus","X1"
"346","3","1",8.62423038482666,44,0.726,"mixed test heart","0.75","left","PLUS Fall","heart","plus","X1"
"347","3","1",8.62423038482666,51,0.643,"mixed test heart","0.75","right","PLUS Fall","heart","plus","X0"
"348","3","1",8.62423038482666,68,0.733,"mixed test heart","0.75","left","PLUS Fall","heart","plus","X1"
"349","3","1",8.87611198425293,13,0.521,"hearts test","0.75","right","PLUS Fall","heart","plus","X1"
"350","3","1",8.87611198425293,48,0.716,"mixed test heart","0.75","left","PLUS Fall","heart","plus","X1"
"351","3","1",8.87611198425293,59,0.48,"mixed test heart","0.75","left","PLUS Fall","heart","plus","X1"
"352","3","0",8.96098518371582,59,0.666,"mixed test heart","0.75","left","PLUS Fall","heart","plus","X1"
"353","3","0",8.96098518371582,15,0.6,"hearts test","0.75","right","PLUS Fall","heart","plus","X1"
"354","3","0",8.96098518371582,53,0.501,"mixed test heart","0.75","left","PLUS Fall","heart","plus","X1"
"355","3","0",8.37508583068848,9,0.474,"hearts test","0.75","right","PLUS Fall","heart","plus","X1"
"356","3","0",8.37508583068848,11,0.525,"hearts test","0.75","left","PLUS Fall","heart","plus","X1"
"357","3","0",8.37508583068848,16,0.425,"hearts test","0.75","right","PLUS Fall","heart","plus","X1"
"358","3","0",8.37508583068848,17,0.493,"hearts test","0.75","left","PLUS Fall","heart","plus","X1"
"359","3","0",8.37508583068848,18,0.443,"hearts test","0.75","left","PLUS Fall","heart","plus","X1"
"360","3","0",8.37508583068848,64,0.626,"mixed test heart","0.75","left","PLUS Fall","heart","plus","X1"
"361","3","1",8.87611198425293,10,0.467,"hearts test","0.75","left","PLUS Fall","heart","plus","X1"
"362","3","1",8.87611198425293,18,0.616,"hearts test","0.75","left","PLUS Fall","heart","plus","X1"
"363","3","1",8.87611198425293,68,0.47,"mixed test heart","0.75","left","PLUS Fall","heart","plus","X0"
"364","3","1",8.96098518371582,14,0.601,"hearts test","0.75","left","PLUS Fall","heart","plus","X1"
"365","3","1",8.96098518371582,16,0.706,"hearts test","0.75","right","PLUS Fall","heart","plus","X1"
"366","3","1",8.96098518371582,64,0.61,"mixed test heart","0.75","left","PLUS Fall","heart","plus","X0"
"367","3","1",8.96098518371582,65,0.611,"mixed test heart","0.75","left","PLUS Fall","heart","plus","X1"
"368","3","1",8.92046546936035,13,0.602,"hearts test","0.75","right","PLUS Fall","heart","plus","X1"
"369","3","1",8.92046546936035,14,0.558,"hearts test","0.75","left","PLUS Fall","heart","plus","X1"
"370","3","1",8.92046546936035,52,0.05,"mixed test heart","0.75","left","PLUS Fall","heart","plus","X0"
"371","3","1",8.62423038482666,10,0.572,"hearts test","0.75","left","PLUS Fall","heart","plus","X1"
"372","3","1",8.62423038482666,17,0.484,"hearts test","0.75","left","PLUS Fall","heart","plus","X1"
"373","3","1",8.62423038482666,42,0.585,"mixed test heart","0.75","right","PLUS Fall","heart","plus","X1"
"374","3","1",8.62423038482666,9,0.606,"hearts test","0.75","right","PLUS Fall","heart","plus","X1"
"375","3","1",8.62423038482666,12,0.575,"hearts test","0.75","right","PLUS Fall","heart","plus","X1"
"376","3","1",8.62423038482666,68,0.527,"mixed test heart","0.75","left","PLUS Fall","heart","plus","X0"
"377","3","1",8.62423038482666,69,0.748,"mixed test heart","0.75","right","PLUS Fall","heart","plus","X1"
"378","3","1",9.62354564666748,16,0.531,"hearts test","0.75","right","PLUS Fall","heart","plus","X1"
"379","3","1",9.62354564666748,17,0.466,"hearts test","0.75","left","PLUS Fall","heart","plus","X1"
"380","3","1",9.62354564666748,51,0.679,"mixed test heart","0.75","right","PLUS Fall","heart","plus","X1"
"381","3","0",9.28952789306641,10,0.514,"hearts test","0.75","left","PLUS Fall","heart","plus","X1"
"382","3","0",9.28952789306641,13,0.495,"hearts test","0.75","right","PLUS Fall","heart","plus","X0"
"383","3","0",9.28952789306641,14,0.556,"hearts test","0.75","left","PLUS Fall","heart","plus","X1"
"384","3","0",9.28952789306641,20,0.501,"hearts test","0.75","right","PLUS Fall","heart","plus","X1"
"385","3","0",9.28952789306641,42,0.582,"mixed test heart","0.75","right","PLUS Fall","heart","plus","X1"
"386","3","0",9.28952789306641,59,0.585,"mixed test heart","0.75","left","PLUS Fall","heart","plus","X1"
"387","3","1",8.62423038482666,12,0.487,"hearts test","0.75","right","PLUS Fall","heart","plus","X1"
"388","3","1",8.62423038482666,43,0.593,"mixed test heart","0.75","right","PLUS Fall","heart","plus","X1"
"389","3","1",9.3744010925293,10,0.456,"hearts test","0.75","left","PLUS Fall","heart","plus","X1"
"390","3","1",9.3744010925293,55,0.711,"mixed test heart","0.75","right","PLUS Fall","heart","plus","X1"
"391","3","1",8.87611198425293,10,0.456,"hearts test","0.75","left","PLUS Fall","heart","plus","X1"
"392","3","0",8.70910358428955,10,0.502,"hearts test","0.75","left","PLUS Fall","heart","plus","X1"
"393","3","0",8.70910358428955,15,0.501,"hearts test","0.75","right","PLUS Fall","heart","plus","X1"
"394","3","0",8.70910358428955,18,0.692,"hearts test","0.75","left","PLUS Fall","heart","plus","X1"
"395","3","0",8.70910358428955,44,0.695,"mixed test heart","0.75","left","PLUS Fall","heart","plus","X1"
"396","3","0",8.45722103118896,42,0.726,"mixed test heart","0.75","right","PLUS Fall","heart","plus","X1"
"397","3","0",8.45722103118896,51,0.492,"mixed test heart","0.75","right","PLUS Fall","heart","plus","X0"
"398","3","0",8.45722103118896,68,0.599,"mixed test heart","0.75","left","PLUS Fall","heart","plus","X1"
"399","3","0",8.62423038482666,10,0.662,"hearts test","0.75","left","PLUS Fall","heart","plus","X1"
"400","3","0",8.62423038482666,68,0.552,"mixed test heart","0.75","left","PLUS Fall","heart","plus","X0"
"401","3","0",9.28952789306641,9,0.432,"hearts test","0.75","right","PLUS Fall","heart","plus","X1"
"402","3","0",9.28952789306641,12,0.422,"hearts test","0.75","right","PLUS Fall","heart","plus","X1"
"403","3","0",9.28952789306641,20,0.42,"hearts test","0.75","right","PLUS Fall","heart","plus","X1"
"404","3","0",9.28952789306641,65,0.439,"mixed test heart","0.75","left","PLUS Fall","heart","plus","X1"
"405","3","0",9.28952789306641,69,0.635,"mixed test heart","0.75","right","PLUS Fall","heart","plus","X1"
"406","3","0",8.62423038482666,13,0.674,"hearts test","0.75","right","PLUS Fall","heart","plus","X1"
"407","3","1",9.20465469360352,11,0.701,"hearts test","0.75","left","PLUS Fall","heart","plus","X1"
"408","3","1",9.20465469360352,19,0.692,"hearts test","0.75","left","PLUS Fall","heart","plus","X1"
"409","3","1",9.12799453735352,52,0.739,"mixed test heart","0.75","left","PLUS Fall","heart","plus","X0"
"410","3","0",9,16,0.569,"hearts test","0.75","right","PLUS Fall","heart","plus","X1"
"411","3","0",9,18,0.643,"hearts test","0.75","left","PLUS Fall","heart","plus","X1"
"412","3","0",9,20,0.649,"hearts test","0.75","right","PLUS Fall","heart","plus","X1"
"413","3","0",9,44,0.746,"mixed test heart","0.75","left","PLUS Fall","heart","plus","X0"
"414","3","0",9,53,0.716,"mixed test heart","0.75","left","PLUS Fall","heart","plus","X1"
"415","3","0",8.62423038482666,13,0.558,"hearts test","0.75","right","PLUS Fall","heart","plus","X1"
"416","3","0",8.62423038482666,19,0.511,"hearts test","0.75","left","PLUS Fall","heart","plus","X1"
"417","3","0",8.62423038482666,68,0.609,"mixed test heart","0.75","left","PLUS Fall","heart","plus","X0"
"418","3","1",8.87611198425293,9,0.664,"hearts test","0.75","right","PLUS Fall","heart","plus","X1"
"419","3","1",8.87611198425293,12,0.47,"hearts test","0.75","right","PLUS Fall","heart","plus","X1"
"420","3","1",8.87611198425293,14,0.53,"hearts test","0.75","left","PLUS Fall","heart","plus","X1"
"421","3","1",8.87611198425293,70,0.606,"mixed test heart","0.75","right","PLUS Fall","heart","plus","X1"
"422","3","1",9,9,0.428,"hearts test","0.75","right","PLUS Fall","heart","plus","X1"
"423","3","1",9,20,0.512,"hearts test","0.75","right","PLUS Fall","heart","plus","X1"
"424","3","0",9,14,0.346,"hearts test","0.75","left","PLUS Fall","heart","plus","X1"
"425","3","0",9,42,0.677,"mixed test heart","0.75","right","PLUS Fall","heart","plus","X1"
"426","3","0",9,59,0.596,"mixed test heart","0.75","left","PLUS Fall","heart","plus","X0"
"427","3","0",9,62,0.731,"mixed test heart","0.75","right","PLUS Fall","heart","plus","X0"
"428","3","0",9,70,0.562,"mixed test heart","0.75","right","PLUS Fall","heart","plus","X1"
"429","3","0",8.62423038482666,9,0.689,"hearts test","0.75","right","PLUS Fall","heart","plus","X1"
"430","3","0",8.62423038482666,43,0.621,"mixed test heart","0.75","right","PLUS Fall","heart","plus","X1"
"431","3","0",8.62423038482666,60,0.581,"mixed test heart","0.75","right","PLUS Fall","heart","plus","X1"
"432","5","1",10.5434637069702,12,0.367,"hearts test","0.75","right","PLUS Fall","heart","plus","X1"
"433","5","1",10.5434637069702,13,0.567,"hearts test","0.75","right","PLUS Fall","heart","plus","X1"
"434","5","1",10.5434637069702,52,0.594,"mixed test heart","0.75","left","PLUS Fall","heart","plus","X1"
"435","5","1",10.5434637069702,69,0.628,"mixed test heart","0.75","right","PLUS Fall","heart","plus","X1"
"436","5","0",11.6249141693115,48,0.603,"mixed test heart","0.75","left","PLUS Fall","heart","plus","X0"
"437","5","0",11.6249141693115,51,0.478,"mixed test heart","0.75","right","PLUS Fall","heart","plus","X0"
"438","5","0",11.6249141693115,64,0.593,"mixed test heart","0.75","left","PLUS Fall","heart","plus","X1"
"439","5","0",10.458589553833,10,0.426,"hearts test","0.75","left","PLUS Fall","heart","plus","X1"
"440","5","0",10.458589553833,12,0.362,"hearts test","0.75","right","PLUS Fall","heart","plus","X1"
"441","5","0",10.458589553833,13,0.596,"hearts test","0.75","right","PLUS Fall","heart","plus","X1"
"442","5","0",10.458589553833,15,0.435,"hearts test","0.75","right","PLUS Fall","heart","plus","X1"
"443","5","0",10.458589553833,18,0.679,"hearts test","0.75","left","PLUS Fall","heart","plus","X1"
"444","5","0",10.9623546600342,19,0.392,"hearts test","0.75","left","PLUS Fall","heart","plus","X1"
"445","5","0",10.9623546600342,43,0.555,"mixed test heart","0.75","right","PLUS Fall","heart","plus","X1"
"446","5","0",10.9623546600342,62,0.549,"mixed test heart","0.75","right","PLUS Fall","heart","plus","X1"
"447","5","0",11.3757696151733,13,0.421,"hearts test","0.75","right","PLUS Fall","heart","plus","X1"
"448","5","0",11.3757696151733,17,0.461,"hearts test","0.75","left","PLUS Fall","heart","plus","X1"
"449","5","0",11.3757696151733,62,0.704,"mixed test heart","0.75","right","PLUS Fall","heart","plus","X1"
"450","5","0",11.3757696151733,69,0.428,"mixed test heart","0.75","right","PLUS Fall","heart","plus","X1"
"451","5","0",10.8774814605713,19,0.599,"hearts test","0.75","left","PLUS Fall","heart","plus","X1"
"452","5","0",10.8774814605713,48,0.738,"mixed test heart","0.75","left","PLUS Fall","heart","plus","X1"
"453","5","0",10.7953453063965,13,0.495,"hearts test","0.75","right","PLUS Fall","heart","plus","X1"
"454","5","0",10.7953453063965,48,0.696,"mixed test heart","0.75","left","PLUS Fall","heart","plus","X1"
"455","5","1",10.7104721069336,13,0.62,"hearts test","0.75","right","PLUS Fall","heart","plus","X1"
"456","5","1",10.7104721069336,18,0.43,"hearts test","0.75","left","PLUS Fall","heart","plus","X1"
"457","5","1",10.7104721069336,43,0.524,"mixed test heart","0.75","right","PLUS Fall","heart","plus","X1"
"458","5","1",10.7104721069336,53,0.571,"mixed test heart","0.75","left","PLUS Fall","heart","plus","X1"
"459","5","1",10.7104721069336,14,0.665,"hearts test","0.75","left","PLUS Fall","heart","plus","X1"
"460","5","1",10.7104721069336,20,0.546,"hearts test","0.75","right","PLUS Fall","heart","plus","X1"
"461","5","1",10.7104721069336,43,0.584,"mixed test heart","0.75","right","PLUS Fall","heart","plus","X1"
"462","5","0",11.1293630599976,9,0.425,"hearts test","0.75","right","PLUS Fall","heart","plus","X1"
"463","5","0",11.1293630599976,14,0.405,"hearts test","0.75","left","PLUS Fall","heart","plus","X1"
"464","5","0",11.1293630599976,17,0.44,"hearts test","0.75","left","PLUS Fall","heart","plus","X1"
"465","5","0",11.3757696151733,10,0.545,"hearts test","0.75","left","PLUS Fall","heart","plus","X1"
"466","5","0",10.6255989074707,43,0.565,"mixed test heart","0.75","right","PLUS Fall","heart","plus","X0"
"467","5","0",10.6255989074707,65,0.519,"mixed test heart","0.75","left","PLUS Fall","heart","plus","X1"
"468","5","0",10.5434637069702,18,0.473,"hearts test","0.75","left","PLUS Fall","heart","plus","X1"
"469","5","0",10.5434637069702,64,0.502,"mixed test heart","0.75","left","PLUS Fall","heart","plus","X0"
"470","5","0",10.5434637069702,11,0.427,"hearts test","0.75","left","PLUS Fall","heart","plus","X1"
"471","5","0",10.5434637069702,13,0.45,"hearts test","0.75","right","PLUS Fall","heart","plus","X1"
"472","5","0",10.5434637069702,15,0.367,"hearts test","0.75","right","PLUS Fall","heart","plus","X1"
"473","5","0",10.5434637069702,18,0.479,"hearts test","0.75","left","PLUS Fall","heart","plus","X1"
"474","5","0",10.5434637069702,65,0.506,"mixed test heart","0.75","left","PLUS Fall","heart","plus","X1"
"475","5","0",11.0444898605347,53,0.565,"mixed test heart","0.75","left","PLUS Fall","heart","plus","X1"
"476","5","0",10.7104721069336,11,0.485,"hearts test","0.75","left","PLUS Fall","heart","plus","X1"
"477","5","0",10.7104721069336,13,0.635,"hearts test","0.75","right","PLUS Fall","heart","plus","X1"
"478","5","0",10.7104721069336,14,0.577,"hearts test","0.75","left","PLUS Fall","heart","plus","X1"
"479","5","0",10.7104721069336,19,0.543,"hearts test","0.75","left","PLUS Fall","heart","plus","X1"
"480","5","0",10.7104721069336,55,0.576,"mixed test heart","0.75","right","PLUS Fall","heart","plus","X0"
"481","5","0",10.7104721069336,62,0.357,"mixed test heart","0.75","right","PLUS Fall","heart","plus","X0"
"482","5","0",10.7104721069336,64,0.642,"mixed test heart","0.75","left","PLUS Fall","heart","plus","X0"
"483","5","0",10.9623546600342,42,0.631,"mixed test heart","0.75","right","PLUS Fall","heart","plus","X1"
"484","5","0",10.9623546600342,55,0.58,"mixed test heart","0.75","right","PLUS Fall","heart","plus","X1"
"485","5","0",10.9623546600342,59,0.648,"mixed test heart","0.75","left","PLUS Fall","heart","plus","X1"
"486","5","0",10.9623546600342,65,0.611,"mixed test heart","0.75","left","PLUS Fall","heart","plus","X1"
"487","5","0",10.9623546600342,69,0.551,"mixed test heart","0.75","right","PLUS Fall","heart","plus","X1"
"488","5","1",10.5434637069702,17,0.411,"hearts test","0.75","left","PLUS Fall","heart","plus","X1"
"489","5","1",10.5434637069702,42,0.615,"mixed test heart","0.75","right","PLUS Fall","heart","plus","X1"
"490","5","1",11.1293630599976,14,0.437,"hearts test","0.75","left","PLUS Fall","heart","plus","X1"
"491","5","1",11.1293630599976,20,0.542,"hearts test","0.75","right","PLUS Fall","heart","plus","X1"
"492","5","1",11.1293630599976,43,0.563,"mixed test heart","0.75","right","PLUS Fall","heart","plus","X1"
"493","5","1",11.1293630599976,60,0.697,"mixed test heart","0.75","right","PLUS Fall","heart","plus","X0"
"494","5","0",10.7104721069336,13,0.56,"hearts test","0.75","right","PLUS Fall","heart","plus","X0"
"495","5","1",10.458589553833,17,0.455,"hearts test","0.75","left","PLUS Fall","heart","plus","X1"
"496","5","1",10.458589553833,20,0.551,"hearts test","0.75","right","PLUS Fall","heart","plus","X1"
"497","5","1",10.458589553833,59,0.528,"mixed test heart","0.75","left","PLUS Fall","heart","plus","X1"
"498","5","0",11.2060232162476,9,0.472,"hearts test","0.75","right","PLUS Fall","heart","plus","X1"
"499","5","0",11.2060232162476,12,0.416,"hearts test","0.75","right","PLUS Fall","heart","plus","X1"
"500","5","0",11.2060232162476,17,0.381,"hearts test","0.75","left","PLUS Fall","heart","plus","X1"
"501","5","0",11.2060232162476,18,0.421,"hearts test","0.75","left","PLUS Fall","heart","plus","X1"
"502","5","0",11.2060232162476,19,0.403,"hearts test","0.75","left","PLUS Fall","heart","plus","X1"
"503","5","0",11.2060232162476,51,0.738,"mixed test heart","0.75","right","PLUS Fall","heart","plus","X1"
"504","5","0",11.2060232162476,64,0.729,"mixed test heart","0.75","left","PLUS Fall","heart","plus","X1"
"505","5","0",11.2060232162476,68,0.705,"mixed test heart","0.75","left","PLUS Fall","heart","plus","X1"
"506","5","1",10.3764543533325,17,0.441,"hearts test","0.75","left","PLUS Fall","heart","plus","X1"
"507","5","1",10.3764543533325,62,0.565,"mixed test heart","0.75","right","PLUS Fall","heart","plus","X0"
"508","5","1",10.3764543533325,68,0.639,"mixed test heart","0.75","left","PLUS Fall","heart","plus","X1"
"509","5","1",10.3764543533325,69,0.624,"mixed test heart","0.75","right","PLUS Fall","heart","plus","X0"
"510","5","1",10.458589553833,70,0.675,"mixed test heart","0.75","right","PLUS Fall","heart","plus","X1"
"511","5","1",11,20,0.336,"hearts test","0.75","right","PLUS Fall","heart","plus","X1"
"512","5","1",11,60,0.677,"mixed test heart","0.75","right","PLUS Fall","heart","plus","X1"
"513","5","1",11,64,0.499,"mixed test heart","0.75","left","PLUS Fall","heart","plus","X1"
"514","5","1",11,65,0.439,"mixed test heart","0.75","left","PLUS Fall","heart","plus","X1"
"515","4","0",9.87542819976807,11,0.527,"hearts test","0.75","left","PLUS Fall","heart","plus","X1"
"516","4","0",9.87542819976807,15,0.368,"hearts test","0.75","right","PLUS Fall","heart","plus","X1"
"517","4","0",9.87542819976807,17,0.307,"hearts test","0.75","left","PLUS Fall","heart","plus","X1"
"518","4","0",9.87542819976807,59,0.698,"mixed test heart","0.75","left","PLUS Fall","heart","plus","X1"
"519","4","0",9.79329204559326,9,0.428,"hearts test","0.75","right","PLUS Fall","heart","plus","X1"
"520","4","0",9.79329204559326,13,0.385,"hearts test","0.75","right","PLUS Fall","heart","plus","X1"
"521","4","0",9.79329204559326,14,0.301,"hearts test","0.75","left","PLUS Fall","heart","plus","X1"
"522","4","0",9.79329204559326,53,0.617,"mixed test heart","0.75","left","PLUS Fall","heart","plus","X1"
"523","4","0",9.79329204559326,69,0.339,"mixed test heart","0.75","right","PLUS Fall","heart","plus","X1"
"524","4","1",10.3764543533325,19,0.602,"hearts test","0.75","left","PLUS Fall","heart","plus","X1"
"525","4","1",10.3764543533325,55,0.698,"mixed test heart","0.75","right","PLUS Fall","heart","plus","X0"
"526","4","1",10.3764543533325,62,0.339,"mixed test heart","0.75","right","PLUS Fall","heart","plus","X1"
"527","4","0",10.458589553833,59,0.671,"mixed test heart","0.75","left","PLUS Fall","heart","plus","X0"
"528","4","0",9.62354564666748,18,0.457,"hearts test","0.75","left","PLUS Fall","heart","plus","X1"
"529","4","0",9.62354564666748,53,0.742,"mixed test heart","0.75","left","PLUS Fall","heart","plus","X0"
"530","4","0",9.62354564666748,65,0.499,"mixed test heart","0.75","left","PLUS Fall","heart","plus","X1"
"531","4","1",9.54141044616699,9,0.537,"hearts test","0.75","right","PLUS Fall","heart","plus","X1"
"532","4","1",9.54141044616699,19,0.599,"hearts test","0.75","left","PLUS Fall","heart","plus","X1"
"533","4","1",9.45653629302979,12,0.466,"hearts test","0.75","right","PLUS Fall","heart","plus","X1"
"534","4","1",9.45653629302979,16,0.522,"hearts test","0.75","right","PLUS Fall","heart","plus","X1"
"535","4","0",9,10,0.424,"hearts test","0.75","left","PLUS Fall","heart","plus","X1"
"536","4","0",9,42,0.518,"mixed test heart","0.75","right","PLUS Fall","heart","plus","X1"
"537","4","0",9,44,0.656,"mixed test heart","0.75","left","PLUS Fall","heart","plus","X1"
"538","4","0",9,48,0.674,"mixed test heart","0.75","left","PLUS Fall","heart","plus","X1"
"539","4","0",9,64,0.517,"mixed test heart","0.75","left","PLUS Fall","heart","plus","X0"
"540","4","1",9.62354564666748,9,0.721,"hearts test","0.75","right","PLUS Fall","heart","plus","X1"
"541","4","1",9.62354564666748,10,0.668,"hearts test","0.75","left","PLUS Fall","heart","plus","X1"
"542","4","1",9.62354564666748,13,0.542,"hearts test","0.75","right","PLUS Fall","heart","plus","X1"
"543","4","1",9.62354564666748,14,0.67,"hearts test","0.75","left","PLUS Fall","heart","plus","X1"
"544","4","1",9.62354564666748,15,0.548,"hearts test","0.75","right","PLUS Fall","heart","plus","X1"
"545","4","1",9.62354564666748,18,0.694,"hearts test","0.75","left","PLUS Fall","heart","plus","X1"
"546","4","1",9.62354564666748,20,0.667,"hearts test","0.75","right","PLUS Fall","heart","plus","X1"
"547","4","1",9.62354564666748,62,0.45,"mixed test heart","0.75","right","PLUS Fall","heart","plus","X1"
"548","4","0",10.458589553833,14,0.445,"hearts test","0.75","left","PLUS Fall","heart","plus","X1"
"549","4","0",10.458589553833,15,0.391,"hearts test","0.75","right","PLUS Fall","heart","plus","X1"
"550","4","0",10.458589553833,42,0.482,"mixed test heart","0.75","right","PLUS Fall","heart","plus","X1"
"551","4","0",10.458589553833,51,0.696,"mixed test heart","0.75","right","PLUS Fall","heart","plus","X1"
"552","4","0",10.458589553833,52,0.672,"mixed test heart","0.75","left","PLUS Fall","heart","plus","X1"
"553","4","0",10.458589553833,68,0.469,"mixed test heart","0.75","left","PLUS Fall","heart","plus","X0"
"554","4","1",10.2915811538696,13,0.382,"hearts test","0.75","right","PLUS Fall","heart","plus","X1"
"555","4","1",10.2915811538696,65,0.629,"mixed test heart","0.75","left","PLUS Fall","heart","plus","X1"
"556","4","0",10.003475189209,14,0.472,"hearts test","0.75","left","PLUS Fall","heart","plus","X1"
"557","4","0",10.2915811538696,19,0.45,"hearts test","0.75","left","PLUS Fall","heart","plus","X1"
"558","4","0",10.2915811538696,69,0.604,"mixed test heart","0.75","right","PLUS Fall","heart","plus","X1"
"559","4","0",9.96030139923096,13,0.518,"hearts test","0.75","right","PLUS Fall","heart","plus","X1"
"560","4","0",9.96030139923096,42,0.563,"mixed test heart","0.75","right","PLUS Fall","heart","plus","X1"
"561","4","0",9.96030139923096,43,0.566,"mixed test heart","0.75","right","PLUS Fall","heart","plus","X1"
"562","4","0",9.96030139923096,12,0.438,"hearts test","0.75","right","PLUS Fall","heart","plus","X1"
"563","4","0",9.96030139923096,14,0.417,"hearts test","0.75","left","PLUS Fall","heart","plus","X1"
"564","4","0",9.96030139923096,20,0.359,"hearts test","0.75","right","PLUS Fall","heart","plus","X1"
"565","4","0",9.96030139923096,65,0.704,"mixed test heart","0.75","left","PLUS Fall","heart","plus","X1"
"566","4","1",10.2915811538696,14,0.521,"hearts test","0.75","left","PLUS Fall","heart","plus","X1"
"567","4","1",10.2915811538696,43,0.573,"mixed test heart","0.75","right","PLUS Fall","heart","plus","X1"
"568","4","1",10.2915811538696,52,0.717,"mixed test heart","0.75","left","PLUS Fall","heart","plus","X1"
"569","4","1",10.2915811538696,55,0.728,"mixed test heart","0.75","right","PLUS Fall","heart","plus","X1"
"570","4","1",10.2915811538696,59,0.635,"mixed test heart","0.75","left","PLUS Fall","heart","plus","X1"
"571","4","0",10.2067079544067,65,0.645,"mixed test heart","0.75","left","PLUS Fall","heart","plus","X1"
"572","4","0",10.003475189209,18,0.475,"hearts test","0.75","left","PLUS Fall","heart","plus","X1"
"573","4","0",10.003475189209,48,0.687,"mixed test heart","0.75","left","PLUS Fall","heart","plus","X1"
"574","4","0",10.003475189209,55,0.452,"mixed test heart","0.75","right","PLUS Fall","heart","plus","X1"
"575","4","0",10.3764543533325,11,0.453,"hearts test","0.75","left","PLUS Fall","heart","plus","X1"
"576","4","1",10.2915811538696,10,0.448,"hearts test","0.75","left","PLUS Fall","heart","plus","X1"
"577","4","1",10.2915811538696,11,0.481,"hearts test","0.75","left","PLUS Fall","heart","plus","X1"
"578","4","1",10.2915811538696,16,0.585,"hearts test","0.75","right","PLUS Fall","heart","plus","X1"
"579","4","1",9.54141044616699,13,0.408,"hearts test","0.75","right","PLUS Fall","heart","plus","X1"
"580","4","1",9.54141044616699,70,0.515,"mixed test heart","0.75","right","PLUS Fall","heart","plus","X1"
"581","4","0",10,14,0.442,"hearts test","0.75","left","PLUS Fall","heart","plus","X0"
"582","4","0",10,20,0.599,"hearts test","0.75","right","PLUS Fall","heart","plus","X1"
"583","4","0",10,44,0.171,"mixed test heart","0.75","left","PLUS Fall","heart","plus","X1"
"584","4","0",10,53,0.56,"mixed test heart","0.75","left","PLUS Fall","heart","plus","X1"
"585","4","0",10,64,0.401,"mixed test heart","0.75","left","PLUS Fall","heart","plus","X1"
"586","4","0",10,69,0.064,"mixed test heart","0.75","right","PLUS Fall","heart","plus","X1"
"587","4","0",9.87542819976807,16,0.443,"hearts test","0.75","right","PLUS Fall","heart","plus","X1"
"588","4","0",9.87542819976807,18,0.551,"hearts test","0.75","left","PLUS Fall","heart","plus","X1"
"589","4","0",9.87542819976807,19,0.541,"hearts test","0.75","left","PLUS Fall","heart","plus","X1"
"590","4","0",9.87542819976807,20,0.403,"hearts test","0.75","right","PLUS Fall","heart","plus","X1"
"591","4","0",9.87542819976807,52,0.687,"mixed test heart","0.75","left","PLUS Fall","heart","plus","X1"
"592","4","0",9.87542819976807,59,0.511,"mixed test heart","0.75","left","PLUS Fall","heart","plus","X1"
"593","4","0",9.87542819976807,62,0.59,"mixed test heart","0.75","right","PLUS Fall","heart","plus","X0"
"594","4","1",10.003475189209,13,0.535,"hearts test","0.75","right","PLUS Fall","heart","plus","X1"
"595","4","1",10.003475189209,18,0.658,"hearts test","0.75","left","PLUS Fall","heart","plus","X1"
"596","4","1",10.003475189209,20,0.577,"hearts test","0.75","right","PLUS Fall","heart","plus","X1"
"597","4","0",9.87542819976807,10,0.413,"hearts test","0.75","left","PLUS Fall","heart","plus","X1"
"598","4","0",9.87542819976807,51,0.637,"mixed test heart","0.75","right","PLUS Fall","heart","plus","X0"
"599","4","0",9.87542819976807,65,0.665,"mixed test heart","0.75","left","PLUS Fall","heart","plus","X1"
"600","4","0",9.87542819976807,68,0.434,"mixed test heart","0.75","left","PLUS Fall","heart","plus","X0"
"601","4","1",9.96030139923096,11,0.562,"hearts test","0.75","left","PLUS Fall","heart","plus","X1"
"602","4","1",9.96030139923096,12,0.593,"hearts test","0.75","right","PLUS Fall","heart","plus","X1"
"603","4","1",9.96030139923096,14,0.446,"hearts test","0.75","left","PLUS Fall","heart","plus","X1"
"604","4","1",9.96030139923096,16,0.595,"hearts test","0.75","right","PLUS Fall","heart","plus","X1"
"605","4","1",9.70841884613037,9,0.645,"hearts test","0.75","right","PLUS Fall","heart","plus","X1"
"606","4","1",9.70841884613037,64,0.728,"mixed test heart","0.75","left","PLUS Fall","heart","plus","X1"
"607","4","1",10.0424365997314,15,0.407,"hearts test","0.75","right","PLUS Fall","heart","plus","X1"
"608","4","1",10.0424365997314,19,0.608,"hearts test","0.75","left","PLUS Fall","heart","plus","X1"
"609","4","1",10.0424365997314,55,0.508,"mixed test heart","0.75","right","PLUS Fall","heart","plus","X0"
"610","4","1",10.0424365997314,62,0.413,"mixed test heart","0.75","right","PLUS Fall","heart","plus","X0"
"611","4","1",10.003475189209,13,0.557,"hearts test","0.75","right","PLUS Fall","heart","plus","X1"
"612","4","1",10.003475189209,48,0.611,"mixed test heart","0.75","left","PLUS Fall","heart","plus","X1"
"613","4","1",10.0424365997314,9,0.611,"hearts test","0.75","right","PLUS Fall","heart","plus","X1"
"614","4","1",10.0424365997314,14,0.68,"hearts test","0.75","left","PLUS Fall","heart","plus","X1"
"615","4","1",10.0424365997314,69,0.441,"mixed test heart","0.75","right","PLUS Fall","heart","plus","X1"
"616","4","0",9.87542819976807,10,0.409,"hearts test","0.75","left","PLUS Fall","heart","plus","X1"
"617","4","0",9.87542819976807,16,0.388,"hearts test","0.75","right","PLUS Fall","heart","plus","X1"
"618","4","0",9.87542819976807,52,0.695,"mixed test heart","0.75","left","PLUS Fall","heart","plus","X1"
"619","4","0",9.87542819976807,60,0.544,"mixed test heart","0.75","right","PLUS Fall","heart","plus","X1"
"620","3","1",9.04312133789062,11,0.61,"hearts test","0.75","left","PLUS Fall","heart","plus","X1"
"621","3","1",9.04312133789062,64,0.508,"mixed test heart","0.75","left","PLUS Fall","heart","plus","X0"
"622","3","1",9.20465469360352,70,0.556,"mixed test heart","0.75","right","PLUS Fall","heart","plus","X1"
"623","3","1",9.20465469360352,43,0.699,"mixed test heart","0.75","right","PLUS Fall","heart","plus","X1"
"624","3","1",9.20465469360352,44,0.489,"mixed test heart","0.75","left","PLUS Fall","heart","plus","X1"
"625","3","0",8.45722103118896,14,0.465,"hearts test","0.75","left","PLUS Fall","heart","plus","X1"
"626","3","0",8.45722103118896,20,0.473,"hearts test","0.75","right","PLUS Fall","heart","plus","X1"
"627","3","0",8.45722103118896,43,0.497,"mixed test heart","0.75","right","PLUS Fall","heart","plus","X1"
"628","3","0",8.45722103118896,44,0.589,"mixed test heart","0.75","left","PLUS Fall","heart","plus","X1"
"629","3","0",8.45722103118896,51,0.446,"mixed test heart","0.75","right","PLUS Fall","heart","plus","X1"
"630","3","0",8.45722103118896,53,0.586,"mixed test heart","0.75","left","PLUS Fall","heart","plus","X1"
"631","3","0",8.70910358428955,11,0.54,"hearts test","0.75","left","PLUS Fall","heart","plus","X1"
"632","3","0",8.70910358428955,12,0.047,"hearts test","0.75","right","PLUS Fall","heart","plus","X0"
"633","3","0",8.70910358428955,17,0.519,"hearts test","0.75","left","PLUS Fall","heart","plus","X1"
"634","3","0",8.70910358428955,48,0.715,"mixed test heart","0.75","left","PLUS Fall","heart","plus","X0"
"635","3","0",8.70910358428955,53,0.669,"mixed test heart","0.75","left","PLUS Fall","heart","plus","X1"
"636","3","0",9.28952789306641,11,0.418,"hearts test","0.75","left","PLUS Fall","heart","plus","X1"
"637","3","0",9.28952789306641,13,0.561,"hearts test","0.75","right","PLUS Fall","heart","plus","X1"
"638","3","0",9.28952789306641,15,0.563,"hearts test","0.75","right","PLUS Fall","heart","plus","X1"
"639","3","0",9.28952789306641,16,0.678,"hearts test","0.75","right","PLUS Fall","heart","plus","X1"
"640","3","0",9.28952789306641,19,0.423,"hearts test","0.75","left","PLUS Fall","heart","plus","X0"
"641","3","0",9.28952789306641,42,0.557,"mixed test heart","0.75","right","PLUS Fall","heart","plus","X1"
"642","3","0",9.28952789306641,51,0.686,"mixed test heart","0.75","right","PLUS Fall","heart","plus","X0"
"643","3","0",9.28952789306641,53,0.679,"mixed test heart","0.75","left","PLUS Fall","heart","plus","X1"
"644","3","0",9.28952789306641,64,0.438,"mixed test heart","0.75","left","PLUS Fall","heart","plus","X1"
"645","3","1",9.04312133789062,16,0.405,"hearts test","0.75","right","PLUS Fall","heart","plus","X1"
"646","3","1",9.04312133789062,18,0.482,"hearts test","0.75","left","PLUS Fall","heart","plus","X1"
"647","3","1",9.04312133789062,19,0.505,"hearts test","0.75","left","PLUS Fall","heart","plus","X1"
"648","3","0",8.45722103118896,19,0.616,"hearts test","0.75","left","PLUS Fall","heart","plus","X1"
"649","3","0",8.54209423065186,18,0.606,"hearts test","0.75","left","PLUS Fall","heart","plus","X1"
"650","3","1",8.87611198425293,51,0.546,"mixed test heart","0.75","right","PLUS Fall","heart","plus","X1"
"651","3","1",8.87611198425293,69,0.44,"mixed test heart","0.75","right","PLUS Fall","heart","plus","X0"
"652","3","0",8.87611198425293,20,0.52,"hearts test","0.75","right","PLUS Fall","heart","plus","X1"
"653","3","0",8.87611198425293,62,0.72,"mixed test heart","0.75","right","PLUS Fall","heart","plus","X1"
"654","5","1",11.0444898605347,10,0.437,"hearts test","0.75","left","PLUS Fall","heart","plus","X1"
"655","5","1",11.0444898605347,15,0.457,"hearts test","0.75","right","PLUS Fall","heart","plus","X1"
"656","5","1",11.0444898605347,48,0.6,"mixed test heart","0.75","left","PLUS Fall","heart","plus","X0"
"657","5","1",11.0444898605347,70,0.601,"mixed test heart","0.75","right","PLUS Fall","heart","plus","X1"
"658","5","1",10.9623546600342,70,0.593,"mixed test heart","0.75","right","PLUS Fall","heart","plus","X1"
"659","5","0",10.8774814605713,15,0.383,"hearts test","0.75","right","PLUS Fall","heart","plus","X1"
"660","5","0",10.8774814605713,17,0.511,"hearts test","0.75","left","PLUS Fall","heart","plus","X1"
"661","5","0",10.8774814605713,19,0.553,"hearts test","0.75","left","PLUS Fall","heart","plus","X1"
"662","5","0",10.8774814605713,43,0.748,"mixed test heart","0.75","right","PLUS Fall","heart","plus","X1"
"663","5","1",10.7953453063965,16,0.721,"hearts test","0.75","right","PLUS Fall","heart","plus","X1"
"664","5","1",10.7953453063965,60,0.702,"mixed test heart","0.75","right","PLUS Fall","heart","plus","X1"
"665","5","1",10.7953453063965,65,0.589,"mixed test heart","0.75","left","PLUS Fall","heart","plus","X1"
"666","5","1",10.7953453063965,69,0.501,"mixed test heart","0.75","right","PLUS Fall","heart","plus","X1"
"667","5","0",10.8774814605713,10,0.377,"hearts test","0.75","left","PLUS Fall","heart","plus","X1"
"668","5","0",10.8774814605713,11,0.437,"hearts test","0.75","left","PLUS Fall","heart","plus","X1"
"669","5","0",10.8774814605713,14,0.401,"hearts test","0.75","left","PLUS Fall","heart","plus","X1"
"670","5","0",10.8774814605713,19,0.377,"hearts test","0.75","left","PLUS Fall","heart","plus","X1"
"671","5","0",10.8774814605713,43,0.644,"mixed test heart","0.75","right","PLUS Fall","heart","plus","X1"
"672","5","0",10.8774814605713,69,0.743,"mixed test heart","0.75","right","PLUS Fall","heart","plus","X1"
"673","5","0",10.8711252212524,18,0.491,"hearts test","0.75","left","PLUS Fall","heart","plus","X1"
"674","5","0",10.8711252212524,42,0.489,"mixed test heart","0.75","right","PLUS Fall","heart","plus","X1"
"675","5","0",10.8711252212524,60,0.73,"mixed test heart","0.75","right","PLUS Fall","heart","plus","X1"
"676","5","0",10.8711252212524,62,0.736,"mixed test heart","0.75","right","PLUS Fall","heart","plus","X1"
"677","5","0",11.0444898605347,9,0.513,"hearts test","0.75","right","PLUS Fall","heart","plus","X1"
"678","5","0",11.0444898605347,11,0.525,"hearts test","0.75","left","PLUS Fall","heart","plus","X1"
"679","5","0",11.0444898605347,15,0.402,"hearts test","0.75","right","PLUS Fall","heart","plus","X1"
"680","5","0",11.0444898605347,16,0.526,"hearts test","0.75","right","PLUS Fall","heart","plus","X1"
"681","5","0",11.0444898605347,53,0.609,"mixed test heart","0.75","left","PLUS Fall","heart","plus","X1"
"682","5","0",11.0444898605347,65,0.635,"mixed test heart","0.75","left","PLUS Fall","heart","plus","X1"
"683","5","1",10.6255989074707,12,0.404,"hearts test","0.75","right","PLUS Fall","heart","plus","X1"
"684","5","1",10.6255989074707,17,0.619,"hearts test","0.75","left","PLUS Fall","heart","plus","X1"
"685","5","1",10.6255989074707,20,0.485,"hearts test","0.75","right","PLUS Fall","heart","plus","X1"
"686","5","1",10.6255989074707,42,0.489,"mixed test heart","0.75","right","PLUS Fall","heart","plus","X1"
"687","5","0",10.7953453063965,18,0.458,"hearts test","0.75","left","PLUS Fall","heart","plus","X1"
"688","5","0",10.7953453063965,19,0.464,"hearts test","0.75","left","PLUS Fall","heart","plus","X1"
"689","5","0",10.7953453063965,42,0.505,"mixed test heart","0.75","right","PLUS Fall","heart","plus","X1"
"690","5","0",10.9623546600342,51,0.712,"mixed test heart","0.75","right","PLUS Fall","heart","plus","X1"
"691","5","0",10.9623546600342,52,0.629,"mixed test heart","0.75","left","PLUS Fall","heart","plus","X1"
"692","5","0",10.9623546600342,60,0.648,"mixed test heart","0.75","right","PLUS Fall","heart","plus","X1"
"693","5","0",10.9623546600342,62,0.59,"mixed test heart","0.75","right","PLUS Fall","heart","plus","X1"
"694","5","0",10.9623546600342,65,0.592,"mixed test heart","0.75","left","PLUS Fall","heart","plus","X1"
"695","5","0",10.9623546600342,70,0.602,"mixed test heart","0.75","right","PLUS Fall","heart","plus","X1"
"696","5","0",10.3764543533325,69,0.674,"mixed test heart","0.75","right","PLUS Fall","heart","plus","X1"
"697","5","0",11.2908964157104,10,0.399,"hearts test","0.75","left","PLUS Fall","heart","plus","X1"
"698","5","0",11.2908964157104,14,0.419,"hearts test","0.75","left","PLUS Fall","heart","plus","X1"
"699","5","0",11.2908964157104,19,0.478,"hearts test","0.75","left","PLUS Fall","heart","plus","X1"
"700","5","0",11.2908964157104,42,0.499,"mixed test heart","0.75","right","PLUS Fall","heart","plus","X1"
"701","5","0",11.2908964157104,43,0.536,"mixed test heart","0.75","right","PLUS Fall","heart","plus","X0"
"702","5","0",11.2908964157104,48,0.681,"mixed test heart","0.75","left","PLUS Fall","heart","plus","X1"
"703","5","0",11.2908964157104,69,0.583,"mixed test heart","0.75","right","PLUS Fall","heart","plus","X1"
"704","5","1",10.7953453063965,19,0.59,"hearts test","0.75","left","PLUS Fall","heart","plus","X1"
"705","5","1",11.0444898605347,12,0.505,"hearts test","0.75","right","PLUS Fall","heart","plus","X1"
"706","5","1",11.0444898605347,55,0.716,"mixed test heart","0.75","right","PLUS Fall","heart","plus","X1"
"707","5","1",10.9623546600342,11,0.572,"hearts test","0.75","left","PLUS Fall","heart","plus","X1"
"708","5","1",10.9623546600342,15,0.472,"hearts test","0.75","right","PLUS Fall","heart","plus","X1"
"709","5","1",10.9623546600342,18,0.513,"hearts test","0.75","left","PLUS Fall","heart","plus","X1"
"710","5","1",10.9623546600342,43,0.732,"mixed test heart","0.75","right","PLUS Fall","heart","plus","X1"
"711","5","1",10.9623546600342,51,0.533,"mixed test heart","0.75","right","PLUS Fall","heart","plus","X0"
"712","5","0",10.7104721069336,12,0.321,"hearts test","0.75","right","PLUS Fall","heart","plus","X1"
"713","5","0",10.7104721069336,64,0.703,"mixed test heart","0.75","left","PLUS Fall","heart","plus","X0"
"714","5","0",10.3764543533325,9,0.428,"hearts test","0.75","right","PLUS Fall","heart","plus","X1"
"715","5","0",10.3764543533325,17,0.528,"hearts test","0.75","left","PLUS Fall","heart","plus","X1"
"716","5","0",10.3764543533325,42,0.472,"mixed test heart","0.75","right","PLUS Fall","heart","plus","X1"
"717","5","0",10.3764543533325,43,0.508,"mixed test heart","0.75","right","PLUS Fall","heart","plus","X1"
"718","5","0",10.3764543533325,70,0.596,"mixed test heart","0.75","right","PLUS Fall","heart","plus","X1"
"719","5","0",11.2908964157104,10,0.43,"hearts test","0.75","left","PLUS Fall","heart","plus","X1"
"720","5","0",11.2908964157104,11,0.479,"hearts test","0.75","left","PLUS Fall","heart","plus","X1"
"721","5","0",11.2908964157104,52,0.688,"mixed test heart","0.75","left","PLUS Fall","heart","plus","X1"
"722","5","1",10.7104721069336,12,0.527,"hearts test","0.75","right","PLUS Fall","heart","plus","X1"
"723","5","1",10.7104721069336,52,0.593,"mixed test heart","0.75","left","PLUS Fall","heart","plus","X1"
"724","5","1",10.7104721069336,64,0.599,"mixed test heart","0.75","left","PLUS Fall","heart","plus","X0"
"725","5","0",10.9623546600342,62,0.576,"mixed test heart","0.75","right","PLUS Fall","heart","plus","X1"
"726","5","0",10.9623546600342,70,0.49,"mixed test heart","0.75","right","PLUS Fall","heart","plus","X1"
"727","5","1",10.8711252212524,17,0.529,"hearts test","0.75","left","PLUS Fall","heart","plus","X1"
"728","5","1",10.8711252212524,19,0.711,"hearts test","0.75","left","PLUS Fall","heart","plus","X1"
"729","5","1",10.8711252212524,43,0.621,"mixed test heart","0.75","right","PLUS Fall","heart","plus","X1"
"730","5","1",10.8711252212524,44,0.73,"mixed test heart","0.75","left","PLUS Fall","heart","plus","X1"
"731","5","1",10.8711252212524,70,0.603,"mixed test heart","0.75","right","PLUS Fall","heart","plus","X1"
"732","5","0",10.7104721069336,12,0.471,"hearts test","0.75","right","PLUS Fall","heart","plus","X1"
"733","5","0",10.5434637069702,19,0.631,"hearts test","0.75","left","PLUS Fall","heart","plus","X1"
"734","5","1",11.2908964157104,11,0.466,"hearts test","0.75","left","PLUS Fall","heart","plus","X1"
"735","5","1",11.2908964157104,42,0.514,"mixed test heart","0.75","right","PLUS Fall","heart","plus","X1"
"736","5","1",11.2908964157104,48,0.589,"mixed test heart","0.75","left","PLUS Fall","heart","plus","X1"
"737","5","1",11.2908964157104,59,0.692,"mixed test heart","0.75","left","PLUS Fall","heart","plus","X1"
"738","5","1",11.2908964157104,62,0.697,"mixed test heart","0.75","right","PLUS Fall","heart","plus","X1"
"739","5","1",11.2060232162476,20,0.517,"hearts test","0.75","right","PLUS Fall","heart","plus","X1"
"740","5","1",11.2060232162476,64,0.588,"mixed test heart","0.75","left","PLUS Fall","heart","plus","X0"
"741","5","1",11.2060232162476,70,0.624,"mixed test heart","0.75","right","PLUS Fall","heart","plus","X1"
"742","3","0",9.54141044616699,10,0.485,"hearts test","0.75","left","PLUS Fall","heart","plus","X1"
"743","3","0",9.54141044616699,14,0.478,"hearts test","0.75","left","PLUS Fall","heart","plus","X1"
"744","3","0",9.54141044616699,16,0.447,"hearts test","0.75","right","PLUS Fall","heart","plus","X1"
"745","3","0",9.54141044616699,20,0.381,"hearts test","0.75","right","PLUS Fall","heart","plus","X1"
"746","3","0",9.54141044616699,53,0.635,"mixed test heart","0.75","left","PLUS Fall","heart","plus","X1"
"747","3","0",9.54141044616699,70,0.637,"mixed test heart","0.75","right","PLUS Fall","heart","plus","X1"
"748","3","1",9.54141044616699,14,0.527,"hearts test","0.75","left","PLUS Fall","heart","plus","X1"
"749","3","1",9.54141044616699,59,0.612,"mixed test heart","0.75","left","PLUS Fall","heart","plus","X1"
"750","3","1",9.54141044616699,65,0.721,"mixed test heart","0.75","left","PLUS Fall","heart","plus","X0"
"751","3","1",9.20465469360352,20,0.497,"hearts test","0.75","right","PLUS Fall","heart","plus","X1"
"752","3","1",9.3744010925293,11,0.573,"hearts test","0.75","left","PLUS Fall","heart","plus","X1"
"753","3","1",9.3744010925293,15,0.545,"hearts test","0.75","right","PLUS Fall","heart","plus","X1"
"754","3","1",9.3744010925293,43,0.688,"mixed test heart","0.75","right","PLUS Fall","heart","plus","X0"
"755","3","1",9.3744010925293,60,0.493,"mixed test heart","0.75","right","PLUS Fall","heart","plus","X1"
"756","3","1",9.3744010925293,62,0.471,"mixed test heart","0.75","right","PLUS Fall","heart","plus","X1"
"757","3","1",9.3744010925293,12,0.392,"hearts test","0.75","right","PLUS Fall","heart","plus","X1"
"758","3","1",9.3744010925293,48,0.677,"mixed test heart","0.75","left","PLUS Fall","heart","plus","X1"
"759","3","1",8.45722103118896,19,0.548,"hearts test","0.75","left","PLUS Fall","heart","plus","X1"
"760","3","1",8.45722103118896,52,0.448,"mixed test heart","0.75","left","PLUS Fall","heart","plus","X1"
"761","3","1",8.45722103118896,60,0.623,"mixed test heart","0.75","right","PLUS Fall","heart","plus","X0"
"762","3","1",8.45722103118896,62,0.704,"mixed test heart","0.75","right","PLUS Fall","heart","plus","X1"
"763","3","1",9.20465469360352,12,0.388,"hearts test","0.75","right","PLUS Fall","heart","plus","X1"
"764","3","1",9.20465469360352,55,0.657,"mixed test heart","0.75","right","PLUS Fall","heart","plus","X0"
"765","3","1",9.20465469360352,64,0.638,"mixed test heart","0.75","left","PLUS Fall","heart","plus","X0"
"766","3","1",9.20465469360352,70,0,"mixed test heart","0.75","right","PLUS Fall","heart","plus","X1"
"767","3","0",8.79397678375244,11,0.587,"hearts test","0.75","left","PLUS Fall","heart","plus","X1"
"768","3","0",8.79397678375244,12,0.575,"hearts test","0.75","right","PLUS Fall","heart","plus","X1"
"769","3","0",8.79397678375244,14,0.495,"hearts test","0.75","left","PLUS Fall","heart","plus","X1"
"770","3","1",8.96098518371582,9,0.621,"hearts test","0.75","right","PLUS Fall","heart","plus","X1"
"771","3","1",8.96098518371582,11,0.598,"hearts test","0.75","left","PLUS Fall","heart","plus","X1"
"772","3","1",8.96098518371582,16,0.538,"hearts test","0.75","right","PLUS Fall","heart","plus","X1"
"773","3","1",8.96098518371582,55,0.698,"mixed test heart","0.75","right","PLUS Fall","heart","plus","X1"
"774","3","0",8.54209423065186,18,0.532,"hearts test","0.75","left","PLUS Fall","heart","plus","X1"
"775","3","0",8.54209423065186,44,0.642,"mixed test heart","0.75","left","PLUS Fall","heart","plus","X0"
"776","3","1",8.54209423065186,16,0.682,"hearts test","0.75","right","PLUS Fall","heart","plus","X1"
"777","3","1",8.54209423065186,52,0.719,"mixed test heart","0.75","left","PLUS Fall","heart","plus","X1"
"778","3","0",8.45722103118896,18,0.531,"hearts test","0.75","left","PLUS Fall","heart","plus","X1"
"779","3","0",8.45722103118896,19,0.615,"hearts test","0.75","left","PLUS Fall","heart","plus","X1"
"780","3","0",8.45722103118896,59,0.5,"mixed test heart","0.75","left","PLUS Fall","heart","plus","X1"
"781","4","1",9.45653629302979,13,0.518,"hearts test","0.75","right","PLUS Fall","heart","plus","X1"
"782","4","1",10.2067079544067,16,0.434,"hearts test","0.75","right","PLUS Fall","heart","plus","X1"
"783","4","1",10.2067079544067,19,0.47,"hearts test","0.75","left","PLUS Fall","heart","plus","X1"
"784","4","1",10.2067079544067,53,0.606,"mixed test heart","0.75","left","PLUS Fall","heart","plus","X1"
"785","4","0",9.79329204559326,12,0.567,"hearts test","0.75","right","PLUS Fall","heart","plus","X1"
"786","4","0",9.79329204559326,70,0.531,"mixed test heart","0.75","right","PLUS Fall","heart","plus","X1"
"787","4","0",10.1273097991943,9,0.445,"hearts test","0.75","right","PLUS Fall","heart","plus","X1"
"788","4","0",10.1273097991943,18,0.448,"hearts test","0.75","left","PLUS Fall","heart","plus","X1"
"789","4","0",10.1273097991943,69,0.559,"mixed test heart","0.75","right","PLUS Fall","heart","plus","X1"
"790","4","1",10.2915811538696,11,0.526,"hearts test","0.75","left","PLUS Fall","heart","plus","X1"
"791","4","1",10.2915811538696,14,0.411,"hearts test","0.75","left","PLUS Fall","heart","plus","X1"
"792","4","1",10.2915811538696,43,0.6,"mixed test heart","0.75","right","PLUS Fall","heart","plus","X1"
"793","4","1",9.54141044616699,43,0.623,"mixed test heart","0.75","right","PLUS Fall","heart","plus","X1"
"794","4","0",10.2915811538696,10,0.414,"hearts test","0.75","left","PLUS Fall","heart","plus","X1"
"795","4","0",10.2915811538696,13,0.423,"hearts test","0.75","right","PLUS Fall","heart","plus","X1"
"796","4","0",10.2915811538696,16,0.429,"hearts test","0.75","right","PLUS Fall","heart","plus","X1"
"797","4","0",10.2915811538696,18,0.446,"hearts test","0.75","left","PLUS Fall","heart","plus","X1"
"798","4","0",10.2915811538696,42,0.573,"mixed test heart","0.75","right","PLUS Fall","heart","plus","X1"
"799","4","1",9.70841884613037,10,0.61,"hearts test","0.75","left","PLUS Fall","heart","plus","X1"
"800","4","1",9.70841884613037,15,0.425,"hearts test","0.75","right","PLUS Fall","heart","plus","X1"
"801","4","1",9.70841884613037,18,0.533,"hearts test","0.75","left","PLUS Fall","heart","plus","X1"
"802","4","1",9.70841884613037,59,0.702,"mixed test heart","0.75","left","PLUS Fall","heart","plus","X0"
"803","4","1",9.70841884613037,65,0.532,"mixed test heart","0.75","left","PLUS Fall","heart","plus","X0"
"804","4","1",9.70841884613037,69,0.687,"mixed test heart","0.75","right","PLUS Fall","heart","plus","X0"
"805","4","1",9.54141044616699,19,0.652,"hearts test","0.75","left","PLUS Fall","heart","plus","X1"
"806","4","1",9.54141044616699,53,0.582,"mixed test heart","0.75","left","PLUS Fall","heart","plus","X1"
"807","4","1",9.54141044616699,70,0.594,"mixed test heart","0.75","right","PLUS Fall","heart","plus","X1"
"808","4","1",10.2067079544067,13,0.446,"hearts test","0.75","right","PLUS Fall","heart","plus","X1"
"809","4","1",10.2067079544067,15,0.436,"hearts test","0.75","right","PLUS Fall","heart","plus","X1"
"810","4","1",10.2067079544067,52,0.666,"mixed test heart","0.75","left","PLUS Fall","heart","plus","X0"
"811","4","0",10.2067079544067,16,0.475,"hearts test","0.75","right","PLUS Fall","heart","plus","X1"
"812","4","0",9.70841884613037,18,0.546,"hearts test","0.75","left","PLUS Fall","heart","plus","X1"
"813","4","0",9.70841884613037,20,0.454,"hearts test","0.75","right","PLUS Fall","heart","plus","X1"
"814","4","0",9.70841884613037,44,0.63,"mixed test heart","0.75","left","PLUS Fall","heart","plus","X1"
"815","4","0",9.70841884613037,62,0.749,"mixed test heart","0.75","right","PLUS Fall","heart","plus","X1"
"816","4","0",9.70841884613037,19,0.549,"hearts test","0.75","left","PLUS Fall","heart","plus","X1"
"817","4","0",9.70841884613037,20,0.554,"hearts test","0.75","right","PLUS Fall","heart","plus","X1"
"818","4","0",9.70841884613037,52,0.615,"mixed test heart","0.75","left","PLUS Fall","heart","plus","X1"
"819","4","0",9.70841884613037,55,0.739,"mixed test heart","0.75","right","PLUS Fall","heart","plus","X1"
"820","4","0",9,12,0.421,"hearts test","0.75","right","PLUS Fall","heart","plus","X1"
"821","4","0",9,62,0.624,"mixed test heart","0.75","right","PLUS Fall","heart","plus","X0"
"822","4","0",9.87542819976807,11,0.633,"hearts test","0.75","left","PLUS Fall","heart","plus","X1"
"823","4","0",9.87542819976807,15,0.654,"hearts test","0.75","right","PLUS Fall","heart","plus","X1"
"824","4","0",9.87542819976807,19,0.736,"hearts test","0.75","left","PLUS Fall","heart","plus","X1"
"825","4","0",9.87542819976807,43,0.596,"mixed test heart","0.75","right","PLUS Fall","heart","plus","X1"
"826","4","0",9.87542819976807,60,0.562,"mixed test heart","0.75","right","PLUS Fall","heart","plus","X1"
"827","4","0",9.87542819976807,64,0.637,"mixed test heart","0.75","left","PLUS Fall","heart","plus","X0"
"828","4","0",9.79329204559326,11,0.433,"hearts test","0.75","left","PLUS Fall","heart","plus","X1"
"829","4","0",9.79329204559326,13,0.478,"hearts test","0.75","right","PLUS Fall","heart","plus","X1"
"830","4","0",9.79329204559326,20,0.503,"hearts test","0.75","right","PLUS Fall","heart","plus","X1"
"831","4","0",9.79329204559326,62,0.688,"mixed test heart","0.75","right","PLUS Fall","heart","plus","X1"
"832","4","1",9.87542819976807,9,0.461,"hearts test","0.75","right","PLUS Fall","heart","plus","X1"
"833","4","1",9.87542819976807,16,0.589,"hearts test","0.75","right","PLUS Fall","heart","plus","X1"
"834","4","1",9.87542819976807,20,0.423,"hearts test","0.75","right","PLUS Fall","heart","plus","X1"
"835","4","0",9.87542819976807,10,0.428,"hearts test","0.75","left","PLUS Fall","heart","plus","X1"
"836","4","0",9.87542819976807,13,0.391,"hearts test","0.75","right","PLUS Fall","heart","plus","X1"
"837","4","0",9.87542819976807,52,0.63,"mixed test heart","0.75","left","PLUS Fall","heart","plus","X1"
"838","4","0",9.87542819976807,62,0.737,"mixed test heart","0.75","right","PLUS Fall","heart","plus","X1"
"839","4","0",9.87542819976807,65,0.577,"mixed test heart","0.75","left","PLUS Fall","heart","plus","X1"
"840","4","1",9.79329204559326,10,0.37,"hearts test","0.75","left","PLUS Fall","heart","plus","X1"
"841","4","1",9.79329204559326,12,0.325,"hearts test","0.75","right","PLUS Fall","heart","plus","X1"
"842","4","1",9.79329204559326,20,0.403,"hearts test","0.75","right","PLUS Fall","heart","plus","X1"
"843","4","1",9.79329204559326,51,0.56,"mixed test heart","0.75","right","PLUS Fall","heart","plus","X0"
"844","4","1",9.79329204559326,60,0.598,"mixed test heart","0.75","right","PLUS Fall","heart","plus","X1"
"845","4","0",9.3744010925293,20,0.518,"hearts test","0.75","right","PLUS Fall","heart","plus","X1"
"846","4","0",9.3744010925293,53,0.749,"mixed test heart","0.75","left","PLUS Fall","heart","plus","X1"
"847","4","1",9.3744010925293,9,0.425,"hearts test","0.75","right","PLUS Fall","heart","plus","X1"
"848","4","1",9.3744010925293,64,0.407,"mixed test heart","0.75","left","PLUS Fall","heart","plus","X0"
"849","4","1",9.3744010925293,69,0.684,"mixed test heart","0.75","right","PLUS Fall","heart","plus","X1"
"850","4","1",9.87542819976807,51,0.69,"mixed test heart","0.75","right","PLUS Fall","heart","plus","X0"
"851","4","1",9.87542819976807,42,0.681,"mixed test heart","0.75","right","PLUS Fall","heart","plus","X1"
"852","4","1",9.79329204559326,9,0.643,"hearts test","0.75","right","PLUS Fall","heart","plus","X1"
"853","4","1",9.79329204559326,10,0.498,"hearts test","0.75","left","PLUS Fall","heart","plus","X1"
"854","4","1",9.79329204559326,15,0.558,"hearts test","0.75","right","PLUS Fall","heart","plus","X1"
"855","4","0",9.70841884613037,12,0.497,"hearts test","0.75","right","PLUS Fall","heart","plus","X1"
"856","4","0",9.70841884613037,43,0.668,"mixed test heart","0.75","right","PLUS Fall","heart","plus","X1"
"857","4","0",9.70841884613037,48,0.642,"mixed test heart","0.75","left","PLUS Fall","heart","plus","X0"
"858","4","1",9.96030139923096,11,0.492,"hearts test","0.75","left","PLUS Fall","heart","plus","X1"
"859","4","1",9.96030139923096,18,0.451,"hearts test","0.75","left","PLUS Fall","heart","plus","X1"
"860","4","1",9.96030139923096,44,0.73,"mixed test heart","0.75","left","PLUS Fall","heart","plus","X1"
"861","4","1",9.96030139923096,55,0.596,"mixed test heart","0.75","right","PLUS Fall","heart","plus","X1"
"862","4","1",9.96030139923096,64,0.621,"mixed test heart","0.75","left","PLUS Fall","heart","plus","X1"
"863","4","1",9.82797145843506,16,0.542,"hearts test","0.75","right","PLUS Fall","heart","plus","X1"
"864","4","1",9.82797145843506,55,0.033,"mixed test heart","0.75","right","PLUS Fall","heart","plus","X1"
"865","4","1",9.82797145843506,60,0.699,"mixed test heart","0.75","right","PLUS Fall","heart","plus","X0"
"866","4","1",9.45653629302979,15,0.39,"hearts test","0.75","right","PLUS Fall","heart","plus","X1"
"867","4","1",9.45653629302979,43,0.608,"mixed test heart","0.75","right","PLUS Fall","heart","plus","X1"
"868","4","1",9.45653629302979,69,0.727,"mixed test heart","0.75","right","PLUS Fall","heart","plus","X1"
"869","4","1",10.2915811538696,10,0.445,"hearts test","0.75","left","PLUS Fall","heart","plus","X1"
"870","4","1",10.2915811538696,52,0.704,"mixed test heart","0.75","left","PLUS Fall","heart","plus","X1"
"871","4","1",10.1273097991943,13,0.54,"hearts test","0.75","right","PLUS Fall","heart","plus","X1"
"872","4","1",10.0424365997314,9,0.47,"hearts test","0.75","right","PLUS Fall","heart","plus","X1"
"873","4","1",10.0424365997314,12,0.434,"hearts test","0.75","right","PLUS Fall","heart","plus","X1"
"874","4","1",10.0424365997314,17,0.553,"hearts test","0.75","left","PLUS Fall","heart","plus","X1"
"875","4","1",10.0424365997314,20,0.392,"hearts test","0.75","right","PLUS Fall","heart","plus","X1"
"876","4","1",9.54141044616699,11,0.544,"hearts test","0.75","left","PLUS Fall","heart","plus","X1"
"877","4","1",9.54141044616699,52,0.746,"mixed test heart","0.75","left","PLUS Fall","heart","plus","X1"
"878","4","1",9.54141044616699,64,0.655,"mixed test heart","0.75","left","PLUS Fall","heart","plus","X0"
"879","4","1",9.96030139923096,18,0.621,"hearts test","0.75","left","PLUS Fall","heart","plus","X1"
"880","4","1",9.96030139923096,20,0.528,"hearts test","0.75","right","PLUS Fall","heart","plus","X1"
"881","4","1",9.96030139923096,48,0.582,"mixed test heart","0.75","left","PLUS Fall","heart","plus","X1"
"882","4","0",9.96030139923096,16,0.559,"hearts test","0.75","right","PLUS Fall","heart","plus","X1"
"883","4","0",9.96030139923096,53,0.705,"mixed test heart","0.75","left","PLUS Fall","heart","plus","X1"
"884","4","0",9.96030139923096,55,0.655,"mixed test heart","0.75","right","PLUS Fall","heart","plus","X0"
"885","4","0",9.96030139923096,62,0.436,"mixed test heart","0.75","right","PLUS Fall","heart","plus","X1"
"886","4","0",9.96030139923096,64,0.566,"mixed test heart","0.75","left","PLUS Fall","heart","plus","X0"
"887","4","0",9.96030139923096,69,0.542,"mixed test heart","0.75","right","PLUS Fall","heart","plus","X1"
"888","4","0",10.3764543533325,15,0.373,"hearts test","0.75","right","PLUS Fall","heart","plus","X1"
"889","4","0",10.0597133636475,48,0.642,"mixed test heart","0.75","left","PLUS Fall","heart","plus","X1"
"890","4","0",10.0597133636475,60,0.545,"mixed test heart","0.75","right","PLUS Fall","heart","plus","X1"
"891","4","1",10.0424365997314,14,0.409,"hearts test","0.75","left","PLUS Fall","heart","plus","X1"
"892","4","0",10.3764543533325,19,0.589,"hearts test","0.75","left","PLUS Fall","heart","plus","X1"
"893","4","0",10.3764543533325,16,0.583,"hearts test","0.75","right","PLUS Fall","heart","plus","X1"
"894","4","0",10.3764543533325,18,0.613,"hearts test","0.75","left","PLUS Fall","heart","plus","X1"
"895","4","0",10.3764543533325,48,0.679,"mixed test heart","0.75","left","PLUS Fall","heart","plus","X1"
"896","4","0",10.3764543533325,53,0.678,"mixed test heart","0.75","left","PLUS Fall","heart","plus","X1"
"897","4","0",10.3764543533325,69,0.67,"mixed test heart","0.75","right","PLUS Fall","heart","plus","X1"
"898","4","0",10.3764543533325,70,0.642,"mixed test heart","0.75","right","PLUS Fall","heart","plus","X1"
"899","4","1",9.70841884613037,12,0.747,"hearts test","0.75","right","PLUS Fall","heart","plus","X1"
"900","4","1",9.70841884613037,13,0.599,"hearts test","0.75","right","PLUS Fall","heart","plus","X1"
"901","4","1",9.70841884613037,53,0.657,"mixed test heart","0.75","left","PLUS Fall","heart","plus","X1"
"902","4","1",9.70841884613037,70,0.725,"mixed test heart","0.75","right","PLUS Fall","heart","plus","X1"
"903","4","0",10.0424365997314,10,0.468,"hearts test","0.75","left","PLUS Fall","heart","plus","X1"
"904","4","0",10.0424365997314,44,0.72,"mixed test heart","0.75","left","PLUS Fall","heart","plus","X1"
"905","4","0",10.0424365997314,52,0.571,"mixed test heart","0.75","left","PLUS Fall","heart","plus","X0"
"906","4","0",10.0424365997314,68,0.525,"mixed test heart","0.75","left","PLUS Fall","heart","plus","X1"
"907","4","0",10.0424365997314,69,0.49,"mixed test heart","0.75","right","PLUS Fall","heart","plus","X1"
"908","4","0",9.87542819976807,13,0.566,"hearts test","0.75","right","PLUS Fall","heart","plus","X1"
"909","4","0",9.87542819976807,15,0.477,"hearts test","0.75","right","PLUS Fall","heart","plus","X1"
"910","4","0",9.87542819976807,16,0.628,"hearts test","0.75","right","PLUS Fall","heart","plus","X1"
"911","4","0",9.87542819976807,55,0.08,"mixed test heart","0.75","right","PLUS Fall","heart","plus","X0"
"912","4","1",10.0424365997314,42,0.684,"mixed test heart","0.75","right","PLUS Fall","heart","plus","X0"
"913","4","1",10.0424365997314,69,0.669,"mixed test heart","0.75","right","PLUS Fall","heart","plus","X0"
"914","4","0",10.5434637069702,12,0.484,"hearts test","0.75","right","PLUS Fall","heart","plus","X1"
"915","4","0",10.5434637069702,17,0.748,"hearts test","0.75","left","PLUS Fall","heart","plus","X1"
"916","4","0",10,9,0.376,"hearts test","0.75","right","PLUS Fall","heart","plus","X1"
"917","4","0",10,10,0.556,"hearts test","0.75","left","PLUS Fall","heart","plus","X1"
"918","4","0",10,16,0.45,"hearts test","0.75","right","PLUS Fall","heart","plus","X1"
"919","4","0",10,53,0.513,"mixed test heart","0.75","left","PLUS Fall","heart","plus","X1"
"920","4","0",10,68,0.665,"mixed test heart","0.75","left","PLUS Fall","heart","plus","X1"
"921","4","0",10,70,0.533,"mixed test heart","0.75","right","PLUS Fall","heart","plus","X1"
"922","4","1",10.2067079544067,11,0.501,"hearts test","0.75","left","PLUS Fall","heart","plus","X1"
"923","4","1",10.2067079544067,12,0.403,"hearts test","0.75","right","PLUS Fall","heart","plus","X1"
"924","4","1",10.2067079544067,16,0.479,"hearts test","0.75","right","PLUS Fall","heart","plus","X1"
"925","4","1",10.2067079544067,18,0.4,"hearts test","0.75","left","PLUS Fall","heart","plus","X0"
"926","4","1",10.2067079544067,48,0.744,"mixed test heart","0.75","left","PLUS Fall","heart","plus","X1"
"927","4","1",10.2067079544067,68,0.528,"mixed test heart","0.75","left","PLUS Fall","heart","plus","X1"
"928","4","1",9.54141044616699,12,0.585,"hearts test","0.75","right","PLUS Fall","heart","plus","X1"
"929","4","1",9.54141044616699,13,0.519,"hearts test","0.75","right","PLUS Fall","heart","plus","X1"
"930","4","1",9.54141044616699,14,0.596,"hearts test","0.75","left","PLUS Fall","heart","plus","X1"
"931","4","1",9.54141044616699,19,0.74,"hearts test","0.75","left","PLUS Fall","heart","plus","X1"
"932","4","1",10,60,0.532,"mixed test heart","0.75","right","PLUS Fall","heart","plus","X1"
"933","4","0",10.0597133636475,10,0.42,"hearts test","0.75","left","PLUS Fall","heart","plus","X1"
"934","4","0",9.96030139923096,9,0.558,"hearts test","0.75","right","PLUS Fall","heart","plus","X1"
"935","4","0",9.96030139923096,14,0.53,"hearts test","0.75","left","PLUS Fall","heart","plus","X1"
"936","4","0",9.96030139923096,52,0.746,"mixed test heart","0.75","left","PLUS Fall","heart","plus","X1"
"937","4","0",10.1273097991943,13,0.481,"hearts test","0.75","right","PLUS Fall","heart","plus","X1"
"938","4","0",10.1273097991943,18,0.524,"hearts test","0.75","left","PLUS Fall","heart","plus","X1"
"939","4","0",10.1273097991943,55,0.636,"mixed test heart","0.75","right","PLUS Fall","heart","plus","X0"
"940","4","0",9.3744010925293,12,0.404,"hearts test","0.75","right","PLUS Fall","heart","plus","X1"
"941","4","0",9.3744010925293,70,0.624,"mixed test heart","0.75","right","PLUS Fall","heart","plus","X1"
"942","4","0",10.3764543533325,9,0.462,"hearts test","0.75","right","PLUS Fall","heart","plus","X1"
"943","4","0",10.3764543533325,51,0.693,"mixed test heart","0.75","right","PLUS Fall","heart","plus","X1"
"944","4","0",10.3764543533325,55,0.731,"mixed test heart","0.75","right","PLUS Fall","heart","plus","X1"
"945","4","0",10.3764543533325,68,0.638,"mixed test heart","0.75","left","PLUS Fall","heart","plus","X1"
"946","4","0",9.62354564666748,11,0.454,"hearts test","0.75","left","PLUS Fall","heart","plus","X1"
"947","4","0",9.62354564666748,13,0.493,"hearts test","0.75","right","PLUS Fall","heart","plus","X1"
"948","4","0",9.62354564666748,18,0.472,"hearts test","0.75","left","PLUS Fall","heart","plus","X1"
"949","4","0",9.62354564666748,60,0.607,"mixed test heart","0.75","right","PLUS Fall","heart","plus","X0"
"950","4","0",10.3764543533325,12,0.341,"hearts test","0.75","right","PLUS Fall","heart","plus","X1"
"951","4","0",10.3764543533325,20,0.494,"hearts test","0.75","right","PLUS Fall","heart","plus","X1"
"952","4","0",10.3764543533325,53,0.554,"mixed test heart","0.75","left","PLUS Fall","heart","plus","X1"
"953","4","0",10.3764543533325,64,0.593,"mixed test heart","0.75","left","PLUS Fall","heart","plus","X1"
"954","4","1",9.87542819976807,42,0.682,"mixed test heart","0.75","right","PLUS Fall","heart","plus","X1"
"955","4","1",9.54141044616699,13,0.492,"hearts test","0.75","right","PLUS Fall","heart","plus","X1"
"956","5","0",10.7186861038208,9,0.536,"hearts test","0.75","right","PLUS Fall","heart","plus","X1"
"957","5","0",10.7186861038208,70,0.557,"mixed test heart","0.75","right","PLUS Fall","heart","plus","X1"
"958","5","0",10.9897327423096,42,0.525,"mixed test heart","0.75","right","PLUS Fall","heart","plus","X1"
"959","5","0",10.9897327423096,55,0.689,"mixed test heart","0.75","right","PLUS Fall","heart","plus","X1"
"960","5","0",10.9897327423096,69,0.593,"mixed test heart","0.75","right","PLUS Fall","heart","plus","X1"
"961","5","1",11.1348390579224,13,0.418,"hearts test","0.75","right","PLUS Fall","heart","plus","X1"
"962","5","1",11.1348390579224,19,0.629,"hearts test","0.75","left","PLUS Fall","heart","plus","X1"
"963","5","1",11.1348390579224,42,0.522,"mixed test heart","0.75","right","PLUS Fall","heart","plus","X1"
"964","5","1",11.0636548995972,9,0.645,"hearts test","0.75","right","PLUS Fall","heart","plus","X1"
"965","5","0",10.9377136230469,10,0.491,"hearts test","0.75","left","PLUS Fall","heart","plus","X1"
"966","5","0",10.9377136230469,11,0.59,"hearts test","0.75","left","PLUS Fall","heart","plus","X1"
"967","5","1",11.3566055297852,9,0.389,"hearts test","0.75","right","PLUS Fall","heart","plus","X1"
"968","5","0",11.107460975647,18,0.596,"hearts test","0.75","left","PLUS Fall","heart","plus","X1"
"969","4","1",11.3757696151733,69,0.564,"mixed test heart","0.75","right","PLUS Fall","heart","plus","X1"
"970","4","1",11.3757696151733,70,0.527,"mixed test heart","0.75","right","PLUS Fall","heart","plus","X1"
"971","5","0",11.1540040969849,9,0.45,"hearts test","0.75","right","PLUS Fall","heart","plus","X1"
"972","5","0",11.1540040969849,16,0.448,"hearts test","0.75","right","PLUS Fall","heart","plus","X1"
"973","5","0",11.1540040969849,18,0.447,"hearts test","0.75","left","PLUS Fall","heart","plus","X1"
"974","5","0",11.1540040969849,55,0.425,"mixed test heart","0.75","right","PLUS Fall","heart","plus","X0"
"975","5","0",11.1540040969849,60,0.588,"mixed test heart","0.75","right","PLUS Fall","heart","plus","X1"
